File: 220623 - TG_TGA/C4060956-TA_ResinaSola.txt
nstrument TGA-50H
Module TGA
Operator LJ
Sample NC
Size 6.282 mg
Method
Comment
Xcomment Pan: Platinum
Xcomment Gas1: Nitrogen
Xcomment Balance Gas: Nitrogen 20.0 ml/min
Xcomment Sample Gas: Nitrogen 20.0 ml/min
Nsig 3
Sig1 Time (sec)
Sig2 Temperature (C)
Sig3 Weight (mg)
OrgMethod 1: Ramp 10.00 C/min to 800.00 C
.0000	31.30	6.282
4.000	31.37	6.289
8.000	31.61	6.292
12.00	31.64	6.294
16.00	31.77	6.295
20.00	32.01	6.297
24.00	32.19	6.298
28.00	32.52	6.299
32.00	32.80	6.299
36.00	33.28	6.300
40.00	34.18	6.300
44.00	34.79	6.301
48.00	35.49	6.301
52.00	35.97	6.301
56.00	36.56	6.302
60.00	37.12	6.302
64.00	37.84	6.302
68.00	38.35	6.303
72.00	38.99	6.303
76.00	39.52	6.303
80.00	40.06	6.304
84.00	40.58	6.304
88.00	41.36	6.304
92.00	41.83	6.305
96.00	42.41	6.305
100.0	43.01	6.305
104.0	43.73	6.306
108.0	44.50	6.306
112.0	45.16	6.306
116.0	45.91	6.307
120.0	46.64	6.307
124.0	47.35	6.307
128.0	48.15	6.307
132.0	48.84	6.307
136.0	49.68	6.307
140.0	50.20	6.307
144.0	50.84	6.307
148.0	51.51	6.307
152.0	52.13	6.307
156.0	52.61	6.307
160.0	53.15	6.307
164.0	53.92	6.307
168.0	54.56	6.307
172.0	55.10	6.307
176.0	55.61	6.308
180.0	56.29	6.308
184.0	56.90	6.308
188.0	57.64	6.308
192.0	58.31	6.308
196.0	58.82	6.308
200.0	59.40	6.309
204.0	60.10	6.309
208.0	60.80	6.309
212.0	61.45	6.309
216.0	62.31	6.309
220.0	62.99	6.309
224.0	63.66	6.310
228.0	64.32	6.309
232.0	65.01	6.309
236.0	65.65	6.309
240.0	66.28	6.309
244.0	66.92	6.309
248.0	67.54	6.309
252.0	68.23	6.309
256.0	68.87	6.309
260.0	69.37	6.309
264.0	70.07	6.309
268.0	70.71	6.309
272.0	71.31	6.309
276.0	72.01	6.309
280.0	72.56	6.309
284.0	73.12	6.309
288.0	73.86	6.309
292.0	74.39	6.309
296.0	75.01	6.310
300.0	75.68	6.310
304.0	76.39	6.310
308.0	77.13	6.310
312.0	77.86	6.310
316.0	78.53	6.310
320.0	79.11	6.310
324.0	79.79	6.310
328.0	80.33	6.310
332.0	80.97	6.310
336.0	81.65	6.310
340.0	82.40	6.310
344.0	83.13	6.310
348.0	83.83	6.310
352.0	84.61	6.309
356.0	85.37	6.309
360.0	86.00	6.309
364.0	86.64	6.309
368.0	87.28	6.309
372.0	87.95	6.309
376.0	88.65	6.308
380.0	89.27	6.308
384.0	89.89	6.308
388.0	90.48	6.307
392.0	91.10	6.307
396.0	91.74	6.307
400.0	92.34	6.307
404.0	92.97	6.307
408.0	93.61	6.307
412.0	94.18	6.307
416.0	94.84	6.307
420.0	95.58	6.306
424.0	96.18	6.306
428.0	96.85	6.306
432.0	97.50	6.306
436.0	98.09	6.306
440.0	98.88	6.306
444.0	99.59	6.305
448.0	100.4	6.305
452.0	101.1	6.305
456.0	101.8	6.305
460.0	102.6	6.304
464.0	103.2	6.304
468.0	103.9	6.303
472.0	104.6	6.303
476.0	105.3	6.303
480.0	105.8	6.303
484.0	106.4	6.302
488.0	107.0	6.301
492.0	107.6	6.301
496.0	108.2	6.301
500.0	109.0	6.301
504.0	109.5	6.300
508.0	110.1	6.300
512.0	110.7	6.300
516.0	111.4	6.300
520.0	112.2	6.300
524.0	112.8	6.299
528.0	113.6	6.299
532.0	114.3	6.299
536.0	114.9	6.298
540.0	115.7	6.298
544.0	116.4	6.297
548.0	117.0	6.297
552.0	117.7	6.297
556.0	118.4	6.296
560.0	119.1	6.296
564.0	119.9	6.295
568.0	120.6	6.295
572.0	121.1	6.294
576.0	121.7	6.294
580.0	122.4	6.293
584.0	123.0	6.293
588.0	123.6	6.293
592.0	124.2	6.291
596.0	124.9	6.291
600.0	125.5	6.291
604.0	126.1	6.290
608.0	126.8	6.290
612.0	127.5	6.289
616.0	128.1	6.289
620.0	128.7	6.289
624.0	129.5	6.288
628.0	130.2	6.288
632.0	130.9	6.287
636.0	131.7	6.286
640.0	132.3	6.286
644.0	133.2	6.286
648.0	133.8	6.285
652.0	134.6	6.284
656.0	135.2	6.283
660.0	135.8	6.282
664.0	136.4	6.282
668.0	137.1	6.281
672.0	137.6	6.280
676.0	138.3	6.280
680.0	138.8	6.280
684.0	139.4	6.279
688.0	140.1	6.278
692.0	140.8	6.278
696.0	141.7	6.278
700.0	142.4	6.277
704.0	143.2	6.276
708.0	144.0	6.276
712.0	144.9	6.275
716.0	145.6	6.274
720.0	146.1	6.273
724.0	146.7	6.272
728.0	147.3	6.271
732.0	147.8	6.271
736.0	148.4	6.269
740.0	148.9	6.269
744.0	149.5	6.268
748.0	150.2	6.267
752.0	150.7	6.267
756.0	151.3	6.266
760.0	151.8	6.265
764.0	152.5	6.265
768.0	153.1	6.264
772.0	153.7	6.264
776.0	154.5	6.263
780.0	155.2	6.262
784.0	155.9	6.262
788.0	156.7	6.261
792.0	157.3	6.260
796.0	158.2	6.259
800.0	159.1	6.258
804.0	159.8	6.257
808.0	160.6	6.256
812.0	161.3	6.255
816.0	162.0	6.254
820.0	162.6	6.253
824.0	163.1	6.252
828.0	163.8	6.251
832.0	164.2	6.250
836.0	164.7	6.249
840.0	165.4	6.248
844.0	166.0	6.247
848.0	166.6	6.246
852.0	167.2	6.246
856.0	167.9	6.244
860.0	168.6	6.244
864.0	169.4	6.243
868.0	170.0	6.242
872.0	170.7	6.241
876.0	171.4	6.240
880.0	172.2	6.239
884.0	172.9	6.238
888.0	173.7	6.237
892.0	174.4	6.236
896.0	175.1	6.234
900.0	175.7	6.234
904.0	176.3	6.232
908.0	176.8	6.231
912.0	177.5	6.230
916.0	178.1	6.229
920.0	178.7	6.228
924.0	179.3	6.227
928.0	180.0	6.226
932.0	180.5	6.224
936.0	181.2	6.223
940.0	181.9	6.222
944.0	182.5	6.221
948.0	183.1	6.220
952.0	183.7	6.219
956.0	184.5	6.218
960.0	185.1	6.217
964.0	186.0	6.216
968.0	186.7	6.214
972.0	187.6	6.213
976.0	188.3	6.212
980.0	189.0	6.210
984.0	189.7	6.209
988.0	190.4	6.208
992.0	191.1	6.206
996.0	191.7	6.204
1000.	192.3	6.203
1004.	193.0	6.202
1008.	193.5	6.200
1012.	194.1	6.199
1016.	194.7	6.198
1020.	195.3	6.196
1024.	195.9	6.195
1028.	196.5	6.194
1032.	197.2	6.192
1036.	198.0	6.191
1040.	198.6	6.189
1044.	199.4	6.188
1048.	200.2	6.187
1052.	200.8	6.185
1056.	201.5	6.184
1060.	202.3	6.182
1064.	203.1	6.180
1068.	203.7	6.179
1072.	204.4	6.177
1076.	204.9	6.176
1080.	205.6	6.174
1084.	206.1	6.173
1088.	206.8	6.171
1092.	207.4	6.169
1096.	208.0	6.168
1100.	208.7	6.166
1104.	209.3	6.165
1108.	209.9	6.163
1112.	210.7	6.161
1116.	211.4	6.160
1120.	212.1	6.159
1124.	212.8	6.157
1128.	213.5	6.156
1132.	214.2	6.154
1136.	214.9	6.152
1140.	215.5	6.150
1144.	216.2	6.148
1148.	216.8	6.147
1152.	217.5	6.145
1156.	218.1	6.143
1160.	218.7	6.142
1164.	219.3	6.140
1168.	220.2	6.138
1172.	220.8	6.136
1176.	221.5	6.135
1180.	222.2	6.133
1184.	222.9	6.131
1188.	223.4	6.129
1192.	224.1	6.127
1196.	224.8	6.126
1200.	225.5	6.124
1204.	226.2	6.122
1208.	226.8	6.120
1212.	227.4	6.119
1216.	228.2	6.117
1220.	228.9	6.115
1224.	229.5	6.113
1228.	230.3	6.111
1232.	230.9	6.109
1236.	231.5	6.107
1240.	232.1	6.105
1244.	232.8	6.103
1248.	233.5	6.101
1252.	234.2	6.099
1256.	234.8	6.097
1260.	235.5	6.095
1264.	236.2	6.093
1268.	236.7	6.091
1272.	237.4	6.089
1276.	238.1	6.088
1280.	238.8	6.085
1284.	239.4	6.083
1288.	240.1	6.081
1292.	240.7	6.080
1296.	241.4	6.077
1300.	242.1	6.075
1304.	242.8	6.073
1308.	243.4	6.071
1312.	244.1	6.069
1316.	244.9	6.067
1320.	245.6	6.065
1324.	246.3	6.063
1328.	247.1	6.061
1332.	247.8	6.059
1336.	248.5	6.057
1340.	249.0	6.055
1344.	249.6	6.052
1348.	250.3	6.050
1352.	250.9	6.048
1356.	251.5	6.046
1360.	252.1	6.044
1364.	252.8	6.042
1368.	253.4	6.040
1372.	254.1	6.038
1376.	254.8	6.036
1380.	255.4	6.033
1384.	256.1	6.031
1388.	256.9	6.029
1392.	257.5	6.027
1396.	258.2	6.025
1400.	259.0	6.023
1404.	259.7	6.021
1408.	260.4	6.019
1412.	261.0	6.016
1416.	261.7	6.014
1420.	262.3	6.012
1424.	262.9	6.009
1428.	263.5	6.007
1432.	264.1	6.005
1436.	264.7	6.003
1440.	265.4	6.001
1444.	266.2	5.999
1448.	266.9	5.997
1452.	267.6	5.994
1456.	268.3	5.992
1460.	269.0	5.990
1464.	269.6	5.987
1468.	270.2	5.986
1472.	270.8	5.983
1476.	271.6	5.981
1480.	272.2	5.978
1484.	272.7	5.976
1488.	273.4	5.974
1492.	274.2	5.972
1496.	274.9	5.969
1500.	275.7	5.967
1504.	276.3	5.965
1508.	277.0	5.963
1512.	277.7	5.960
1516.	278.3	5.958
1520.	278.9	5.956
1524.	279.5	5.953
1528.	280.1	5.951
1532.	280.7	5.949
1536.	281.2	5.947
1540.	282.0	5.944
1544.	282.8	5.942
1548.	283.5	5.939
1552.	284.1	5.937
1556.	285.0	5.934
1560.	285.6	5.932
1564.	286.4	5.930
1568.	287.1	5.927
1572.	287.8	5.925
1576.	288.2	5.922
1580.	288.9	5.919
1584.	289.5	5.916
1588.	290.1	5.914
1592.	290.8	5.911
1596.	291.4	5.908
1600.	292.0	5.906
1604.	292.7	5.903
1608.	293.4	5.900
1612.	294.2	5.898
1616.	294.9	5.895
1620.	295.6	5.892
1624.	296.3	5.890
1628.	297.0	5.886
1632.	297.8	5.883
1636.	298.3	5.880
1640.	299.0	5.877
1644.	299.5	5.875
1648.	300.3	5.871
1652.	300.9	5.868
1656.	301.4	5.865
1660.	302.1	5.862
1664.	302.7	5.859
1668.	303.4	5.855
1672.	304.1	5.853
1676.	304.8	5.849
1680.	305.5	5.846
1684.	306.3	5.843
1688.	307.0	5.839
1692.	307.6	5.836
1696.	308.5	5.832
1700.	309.0	5.829
1704.	309.6	5.825
1708.	310.2	5.821
1712.	310.7	5.817
1716.	311.4	5.814
1720.	312.1	5.810
1724.	312.6	5.806
1728.	313.4	5.802
1732.	314.1	5.798
1736.	314.9	5.794
1740.	315.6	5.790
1744.	316.4	5.786
1748.	317.0	5.781
1752.	317.7	5.777
1756.	318.3	5.772
1760.	318.9	5.768
1764.	319.5	5.763
1768.	320.0	5.759
1772.	320.6	5.754
1776.	321.4	5.749
1780.	322.0	5.744
1784.	322.7	5.739
1788.	323.5	5.735
1792.	324.2	5.729
1796.	324.7	5.724
1800.	325.3	5.718
1804.	326.0	5.713
1808.	326.8	5.708
1812.	327.5	5.702
1816.	328.2	5.696
1820.	329.0	5.690
1824.	329.8	5.684
1828.	330.5	5.678
1832.	331.1	5.672
1836.	331.7	5.665
1840.	332.2	5.659
1844.	332.9	5.652
1848.	333.4	5.645
1852.	334.0	5.639
1856.	334.5	5.632
1860.	335.2	5.625
1864.	335.8	5.618
1868.	336.6	5.610
1872.	337.3	5.602
1876.	338.1	5.594
1880.	338.9	5.586
1884.	339.7	5.578
1888.	340.4	5.570
1892.	341.1	5.561
1896.	341.7	5.552
1900.	342.3	5.543
1904.	342.9	5.534
1908.	343.6	5.525
1912.	344.3	5.515
1916.	344.9	5.505
1920.	345.5	5.494
1924.	346.2	5.484
1928.	346.9	5.473
1932.	347.5	5.462
1936.	348.2	5.451
1940.	348.8	5.439
1944.	349.5	5.427
1948.	350.0	5.415
1952.	350.7	5.402
1956.	351.4	5.390
1960.	352.2	5.376
1964.	353.0	5.363
1968.	353.6	5.349
1972.	354.4	5.334
1976.	355.0	5.319
1980.	355.7	5.304
1984.	356.4	5.289
1988.	357.0	5.272
1992.	357.6	5.256
1996.	358.2	5.239
2000.	358.9	5.221
2004.	359.6	5.203
2008.	360.2	5.184
2012.	360.8	5.165
2016.	361.5	5.144
2020.	362.3	5.121
2024.	362.9	5.099
2028.	363.5	5.077
2032.	364.3	5.054
2036.	364.8	5.031
2040.	365.5	5.008
2044.	366.2	4.985
2048.	366.9	4.961
2052.	367.6	4.938
2056.	368.3	4.914
2060.	369.0	4.891
2064.	369.6	4.868
2068.	370.1	4.843
2072.	370.7	4.819
2076.	371.5	4.794
2080.	372.0	4.770
2084.	372.7	4.744
2088.	373.5	4.719
2092.	374.1	4.692
2096.	374.8	4.666
2100.	375.5	4.639
2104.	376.2	4.610
2108.	376.8	4.580
2112.	377.5	4.550
2116.	378.1	4.519
2120.	378.9	4.487
2124.	379.6	4.455
2128.	380.2	4.421
2132.	380.8	4.387
2136.	381.5	4.352
2140.	382.0	4.316
2144.	382.6	4.277
2148.	383.3	4.236
2152.	384.0	4.193
2156.	384.9	4.148
2160.	385.6	4.099
2164.	386.4	4.048
2168.	387.1	3.999
2172.	387.8	3.948
2176.	388.5	3.897
2180.	389.0	3.846
2184.	389.7	3.795
2188.	390.3	3.743
2192.	390.8	3.692
2196.	391.4	3.639
2200.	392.0	3.586
2204.	392.8	3.533
2208.	393.5	3.479
2212.	394.1	3.425
2216.	395.0	3.372
2220.	395.6	3.319
2224.	396.3	3.265
2228.	397.0	3.210
2232.	397.7	3.154
2236.	398.4	3.098
2240.	399.0	3.041
2244.	399.7	2.983
2248.	400.3	2.927
2252.	401.0	2.870
2256.	401.7	2.814
2260.	402.3	2.759
2264.	403.0	2.705
2268.	403.6	2.651
2272.	404.2	2.599
2276.	404.8	2.547
2280.	405.5	2.496
2284.	406.1	2.445
2288.	406.9	2.395
2292.	407.5	2.345
2296.	408.3	2.295
2300.	409.0	2.246
2304.	409.6	2.198
2308.	410.3	2.150
2312.	411.0	2.102
2316.	411.6	2.056
2320.	412.4	2.009
2324.	413.1	1.965
2328.	413.7	1.920
2332.	414.3	1.875
2336.	414.8	1.832
2340.	415.6	1.790
2344.	416.1	1.748
2348.	416.8	1.707
2352.	417.6	1.666
2356.	418.2	1.626
2360.	418.8	1.586
2364.	419.5	1.546
2368.	420.2	1.507
2372.	420.9	1.468
2376.	421.6	1.430
2380.	422.3	1.393
2384.	423.1	1.357
2388.	423.8	1.322
2392.	424.5	1.288
2396.	425.2	1.255
2400.	425.8	1.224
2404.	426.5	1.193
2408.	427.1	1.164
2412.	427.8	1.135
2416.	428.6	1.109
2420.	429.2	1.082
2424.	429.6	1.058
2428.	430.1	1.035
2432.	430.6	1.013
2436.	431.1	0.9915
2440.	431.7	0.9704
2444.	432.4	0.9501
2448.	433.1	0.9302
2452.	433.9	0.9117
2456.	434.7	0.8945
2460.	435.5	0.8788
2464.	436.1	0.8641
2468.	436.8	0.8501
2472.	437.5	0.8378
2476.	438.1	0.8266
2480.	438.8	0.8167
2484.	439.3	0.8074
2488.	440.0	0.7991
2492.	440.6	0.7911
2496.	441.3	0.7837
2500.	442.0	0.7771
2504.	442.8	0.7706
2508.	443.5	0.7647
2512.	444.2	0.7586
2516.	444.9	0.7532
2520.	445.8	0.7470
2524.	446.4	0.7423
2528.	447.0	0.7376
2532.	447.5	0.7330
2536.	448.1	0.7293
2540.	448.7	0.7256
2544.	449.4	0.7225
2548.	450.0	0.7192
2552.	450.7	0.7157
2556.	451.4	0.7128
2560.	452.2	0.7097
2564.	452.9	0.7068
2568.	453.6	0.7043
2572.	454.2	0.7015
2576.	454.9	0.6991
2580.	455.5	0.6967
2584.	456.1	0.6948
2588.	456.8	0.6924
2592.	457.4	0.6905
2596.	458.1	0.6887
2600.	458.8	0.6866
2604.	459.5	0.6851
2608.	460.2	0.6836
2612.	460.8	0.6819
2616.	461.4	0.6805
2620.	462.2	0.6788
2624.	462.9	0.6773
2628.	463.6	0.6760
2632.	464.2	0.6746
2636.	464.8	0.6735
2640.	465.4	0.6723
2644.	466.0	0.6714
2648.	466.7	0.6705
2652.	467.3	0.6694
2656.	468.0	0.6683
2660.	468.8	0.6673
2664.	469.4	0.6662
2668.	470.1	0.6652
2672.	470.8	0.6640
2676.	471.4	0.6629
2680.	472.1	0.6622
2684.	472.7	0.6613
2688.	473.4	0.6604
2692.	473.9	0.6593
2696.	474.6	0.6584
2700.	475.3	0.6577
2704.	476.1	0.6569
2708.	476.8	0.6559
2712.	477.5	0.6550
2716.	478.2	0.6539
2720.	478.9	0.6531
2724.	479.6	0.6523
2728.	480.2	0.6514
2732.	480.8	0.6505
2736.	481.4	0.6499
2740.	482.1	0.6488
2744.	482.6	0.6481
2748.	483.4	0.6474
2752.	484.1	0.6463
2756.	484.9	0.6454
2760.	485.5	0.6447
2764.	486.1	0.6445
2768.	486.8	0.6434
2772.	487.5	0.6430
2776.	488.1	0.6417
2780.	488.7	0.6407
2784.	489.4	0.6399
2788.	490.0	0.6390
2792.	490.6	0.6385
2796.	491.3	0.6375
2800.	491.9	0.6365
2804.	492.6	0.6357
2808.	493.3	0.6344
2812.	494.1	0.6340
2816.	494.8	0.6330
2820.	495.4	0.6322
2824.	496.0	0.6316
2828.	496.7	0.6306
2832.	497.4	0.6297
2836.	497.9	0.6289
2840.	498.6	0.6276
2844.	499.2	0.6266
2848.	500.0	0.6256
2852.	500.7	0.6246
2856.	501.4	0.6238
2860.	502.1	0.6229
2864.	502.7	0.6219
2868.	503.4	0.6207
2872.	504.1	0.6200
2876.	504.7	0.6191
2880.	505.3	0.6183
2884.	506.0	0.6172
2888.	506.6	0.6161
2892.	507.2	0.6150
2896.	508.0	0.6144
2900.	508.7	0.6136
2904.	509.3	0.6128
2908.	510.0	0.6122
2912.	510.7	0.6107
2916.	511.5	0.6099
2920.	512.2	0.6086
2924.	512.8	0.6074
2928.	513.5	0.6064
2932.	514.1	0.6052
2936.	514.8	0.6043
2940.	515.5	0.6029
2944.	516.1	0.6018
2948.	516.7	0.6004
2952.	517.4	0.5996
2956.	518.0	0.5980
2960.	518.7	0.5974
2964.	519.4	0.5961
2968.	520.0	0.5951
2972.	520.8	0.5937
2976.	521.5	0.5923
2980.	522.1	0.5905
2984.	522.8	0.5894
2988.	523.4	0.5880
2992.	524.0	0.5864
2996.	524.6	0.5851
3000.	525.2	0.5834
3004.	525.9	0.5821
3008.	526.6	0.5806
3012.	527.4	0.5791
3016.	528.2	0.5775
3020.	528.8	0.5758
3024.	529.4	0.5745
3028.	530.1	0.5730
3032.	530.8	0.5710
3036.	531.4	0.5691
3040.	532.0	0.5672
3044.	532.6	0.5654
3048.	533.4	0.5633
3052.	534.0	0.5612
3056.	534.8	0.5591
3060.	535.5	0.5575
3064.	536.2	0.5559
3068.	536.9	0.5536
3072.	537.6	0.5514
3076.	538.1	0.5492
3080.	538.7	0.5469
3084.	539.3	0.5448
3088.	540.1	0.5427
3092.	540.7	0.5403
3096.	541.4	0.5379
3100.	542.1	0.5356
3104.	542.8	0.5330
3108.	543.4	0.5307
3112.	544.1	0.5283
3116.	544.9	0.5259
3120.	545.7	0.5228
3124.	546.3	0.5203
3128.	546.9	0.5179
3132.	547.5	0.5154
3136.	548.1	0.5124
3140.	548.7	0.5096
3144.	549.4	0.5063
3148.	550.0	0.5033
3152.	550.8	0.5002
3156.	551.5	0.4971
3160.	552.2	0.4939
3164.	552.7	0.4903
3168.	553.5	0.4870
3172.	554.2	0.4836
3176.	554.8	0.4799
3180.	555.4	0.4767
3184.	556.2	0.4729
3188.	556.8	0.4692
3192.	557.5	0.4651
3196.	558.2	0.4611
3200.	558.8	0.4573
3204.	559.5	0.4531
3208.	560.1	0.4488
3212.	560.8	0.4447
3216.	561.4	0.4405
3220.	562.1	0.4358
3224.	562.8	0.4313
3228.	563.6	0.4267
3232.	564.3	0.4226
3236.	565.0	0.4178
3240.	565.5	0.4132
3244.	566.1	0.4085
3248.	566.8	0.4035
3252.	567.4	0.3996
3256.	568.1	0.3964
3260.	568.7	0.3908
3264.	569.5	0.3858
3268.	570.1	0.3810
3272.	570.7	0.3768
3276.	571.3	0.3721
3280.	572.0	0.3680
3284.	572.6	0.3637
3288.	573.4	0.3592
3292.	574.1	0.3542
3296.	574.7	0.3497
3300.	575.4	0.3455
3304.	576.0	0.3419
3308.	576.8	0.3370
3312.	577.4	0.3320
3316.	578.1	0.3272
3320.	578.8	0.3228
3324.	579.4	0.3181
3328.	580.2	0.3133
3332.	580.8	0.3083
3336.	581.4	0.3035
3340.	582.0	0.2988
3344.	582.7	0.2936
3348.	583.5	0.2884
3352.	584.0	0.2838
3356.	584.8	0.2792
3360.	585.5	0.2739
3364.	586.1	0.2689
3368.	586.8	0.2649
3372.	587.3	0.2601
3376.	588.0	0.2546
3380.	588.7	0.2494
3384.	589.4	0.2440
3388.	590.1	0.2388
3392.	590.7	0.2337
3396.	591.4	0.2292
3400.	592.1	0.2247
3404.	592.8	0.2202
3408.	593.5	0.2151
3412.	594.1	0.2100
3416.	594.8	0.2054
3420.	595.4	0.2006
3424.	596.0	0.1958
3428.	596.7	0.1905
3432.	597.5	0.1862
3436.	598.2	0.1824
3440.	598.9	0.1772
3444.	599.5	0.1736
3448.	600.1	0.1693
3452.	600.6	0.1644
3456.	601.3	0.1599
3460.	602.0	0.1561
3464.	602.7	0.1524
3468.	603.3	0.1478
3472.	604.0	0.1448
3476.	604.8	0.1410
3480.	605.5	0.1378
3484.	606.1	0.1351
3488.	606.7	0.1327
3492.	607.4	0.1290
3496.	608.1	0.1265
3500.	608.7	0.1242
3504.	609.3	0.1213
3508.	610.0	0.1190
3512.	610.5	0.1181
3516.	611.2	0.1166
3520.	611.9	0.1155
3524.	612.7	0.1141
3528.	613.4	0.1118
3532.	614.1	0.1102
3536.	614.8	0.1091
3540.	615.5	0.1078
3544.	616.1	0.1068
3548.	616.8	0.1059
3552.	617.3	0.1051
3556.	618.0	0.1046
3560.	618.6	0.1043
3564.	619.3	0.1038
3568.	620.0	0.1036
3572.	620.7	0.1048
3576.	621.5	0.1041
3580.	622.2	0.1034
3584.	622.8	0.1020
3588.	623.5	0.1017
3592.	624.1	0.1014
3596.	624.8	0.1011
3600.	625.5	0.1008
3604.	626.1	0.1010
3608.	626.8	0.1014
3612.	627.4	0.1012
3616.	628.0	0.1009
3620.	628.7	0.1004
3624.	629.4	0.1002
3628.	630.0	0.1002
3632.	630.7	0.1003
3636.	631.4	0.1000
3640.	632.1	0.09996
3644.	632.8	0.1000
3648.	633.4	0.09966
3652.	634.1	0.09986
3656.	634.7	0.09978
3660.	635.3	0.09974
3664.	636.0	0.09993
3668.	636.7	0.09968
3672.	637.4	0.09965
3676.	638.1	0.09935
3680.	638.9	0.09926
3684.	639.5	0.09953
3688.	640.2	0.09951
3692.	640.9	0.09953
3696.	641.5	0.09956
3700.	642.2	0.09965
3704.	642.8	0.09940
3708.	643.5	0.09906
3712.	644.2	0.09908
3716.	644.8	0.09895
3720.	645.6	0.09898
3724.	646.2	0.09896
3728.	646.9	0.09854
3732.	647.6	0.09827
3736.	648.2	0.09894
3740.	648.8	0.09914
3744.	649.5	0.09865
3748.	650.2	0.09878
3752.	650.9	0.09858
3756.	651.6	0.09851
3760.	652.3	0.09808
3764.	653.0	0.09822
3768.	653.8	0.09825
3772.	654.5	0.09822
3776.	655.1	0.09814
3780.	655.7	0.09814
3784.	656.4	0.09827
3788.	657.0	0.09822
3792.	657.7	0.09845
3796.	658.4	0.09822
3800.	659.1	0.09836
3804.	659.7	0.09844
3808.	660.3	0.09857
3812.	661.1	0.09857
3816.	661.9	0.09886
3820.	662.5	0.09853
3824.	663.2	0.09823
3828.	663.8	0.09852
3832.	664.4	0.09863
3836.	665.1	0.09843
3840.	665.8	0.09850
3844.	666.4	0.09818
3848.	667.0	0.09804
3852.	667.8	0.09789
3856.	668.5	0.09798
3860.	669.2	0.09783
3864.	669.8	0.09842
3868.	670.5	0.09849
3872.	671.3	0.09796
3876.	672.0	0.09774
3880.	672.6	0.09772
3884.	673.2	0.09777
3888.	673.8	0.09782
3892.	674.4	0.09789
3896.	675.1	0.09789
3900.	675.9	0.09828
3904.	676.6	0.09859
3908.	677.2	0.09825
3912.	677.9	0.09847
3916.	678.6	0.09847
3920.	679.3	0.09814
3924.	679.9	0.09786
3928.	680.6	0.09761
3932.	681.3	0.09759
3936.	682.0	0.09792
3940.	682.7	0.09810
3944.	683.4	0.09835
3948.	684.1	0.09871
3952.	684.6	0.09866
3956.	685.4	0.09904
3960.	686.0	0.09924
3964.	686.6	0.09905
3968.	687.3	0.09871
3972.	688.0	0.09894
3976.	688.7	0.09872
3980.	689.4	0.09879
3984.	690.0	0.09870
3988.	690.7	0.09874
3992.	691.4	0.09898
3996.	692.1	0.09907
4000.	692.7	0.09911
4004.	693.4	0.09910
4008.	694.0	0.09909
4012.	694.8	0.09955
4016.	695.5	0.09977
4020.	696.0	0.09983
4024.	696.7	0.09956
4028.	697.4	0.1002
4032.	698.1	0.09976
4036.	698.8	0.09980
4040.	699.4	0.1001
4044.	700.0	0.1015
4048.	700.7	0.1008
4052.	701.4	0.1010
4056.	702.1	0.1010
4060.	702.7	0.1018
4064.	703.5	0.1021
4068.	704.1	0.1017
4072.	704.8	0.1014
4076.	705.4	0.1018
4080.	706.1	0.1013
4084.	706.8	0.1013
4088.	707.4	0.1015
4092.	708.1	0.1014
4096.	708.8	0.1017
4100.	709.5	0.1018
4104.	710.2	0.1019
4108.	710.9	0.1018
4112.	711.5	0.1023
4116.	712.1	0.1022
4120.	712.8	0.1023
4124.	713.5	0.1022
4128.	714.2	0.1018
4132.	714.8	0.1019
4136.	715.4	0.1024
4140.	716.2	0.1023
4144.	716.9	0.1028
4148.	717.5	0.1027
4152.	718.3	0.1025
4156.	718.9	0.1025
4160.	719.5	0.1023
4164.	720.2	0.1026
4168.	720.9	0.1025
4172.	721.5	0.1026
4176.	722.2	0.1027
4180.	722.9	0.1026
4184.	723.6	0.1032
4188.	724.3	0.1031
4192.	725.0	0.1033
4196.	725.6	0.1033
4200.	726.2	0.1035
4204.	726.9	0.1036
4208.	727.5	0.1037
4212.	728.2	0.1040
4216.	728.9	0.1038
4220.	729.5	0.1038
4224.	730.3	0.1037
4228.	730.9	0.1038
4232.	731.5	0.1034
4236.	732.2	0.1037
4240.	732.9	0.1038
4244.	733.5	0.1038
4248.	734.3	0.1040
4252.	734.9	0.1039
4256.	735.6	0.1039
4260.	736.3	0.1044
4264.	736.9	0.1042
4268.	737.6	0.1040
4272.	738.2	0.1042
4276.	738.9	0.1041
4280.	739.6	0.1041
4284.	740.3	0.1040
4288.	741.0	0.1044
4292.	741.6	0.1049
4296.	742.2	0.1050
4300.	742.7	0.1051
4304.	743.4	0.1047
4308.	744.1	0.1050
4312.	744.8	0.1052
4316.	745.6	0.1050
4320.	746.2	0.1048
4324.	746.8	0.1048
4328.	747.5	0.1046
4332.	748.1	0.1056
4336.	748.8	0.1062
4340.	749.4	0.1065
4344.	750.1	0.1060
4348.	750.8	0.1058
4352.	751.3	0.1060
4356.	752.0	0.1053
4360.	752.7	0.1050
4364.	753.4	0.1052
4368.	754.1	0.1052
4372.	754.8	0.1051
4376.	755.6	0.1050
4380.	756.2	0.1053
4384.	756.8	0.1052
4388.	757.4	0.1052
4392.	758.1	0.1053
4396.	758.8	0.1056
4400.	759.4	0.1056
4404.	760.0	0.1056
4408.	760.7	0.1059
4412.	761.3	0.1059
4416.	761.9	0.1060
4420.	762.6	0.1062
4424.	763.3	0.1068
4428.	764.0	0.1068
4432.	764.7	0.1063
4436.	765.4	0.1063
4440.	766.0	0.1063
4444.	766.8	0.1062
4448.	767.5	0.1060
4452.	768.2	0.1063
4456.	768.9	0.1062
4460.	769.5	0.1064
4464.	770.3	0.1062
4468.	770.9	0.1061
4472.	771.5	0.1063
4476.	772.2	0.1062
4480.	772.8	0.1063
4484.	773.5	0.1064
4488.	774.1	0.1063
4492.	774.8	0.1068
4496.	775.5	0.1071
4500.	776.2	0.1068
4504.	776.8	0.1065
4508.	777.5	0.1065
4512.	778.2	0.1066
4516.	778.9	0.1066
4520.	779.5	0.1065
4524.	780.2	0.1062
4528.	780.8	0.1064
4532.	781.4	0.1069
4536.	782.2	0.1064
4540.	782.9	0.1066
4544.	783.5	0.1068
4548.	784.1	0.1068
4552.	784.9	0.1065
4556.	785.4	0.1065
4560.	786.1	0.1069
4564.	786.8	0.1074
4568.	787.5	0.1082
4572.	788.1	0.1090
4576.	788.9	0.1088
4580.	789.5	0.1087
4584.	790.1	0.1076
4588.	790.8	0.1070
4592.	791.4	0.1066
4596.	792.1	0.1064
4600.	792.7	0.1064
4604.	793.4	0.1068
4608.	794.1	0.1064
4612.	794.8	0.1064
4616.	795.6	0.1061
4620.	796.2	0.1063
4624.	796.9	0.1063
4628.	797.5	0.1072
4632.	798.2	0.1076
4636.	798.7	0.1078
4640.	799.4	0.1073
4643.	799.9	0.1080