File: 220623 - TG_TGA/C4190947-TA_kit10.txt
Instrument TGA-50H
Module TGA-50H
Operator LJ - LATAT
Sample KIT10
Size 2.764 mg
Method
Comment
Xcomment Pan: Platinum
Xcomment Gas1: Nitrogen
Xcomment Balance Gas: Nitrogen 20.0 ml/min
Xcomment Sample Gas: Nitrogen 20.0 ml/min
Nsig 3
Sig1 Time (sec)
Sig2 Temperature (C)
Sig3 Weight (mg)
OrgMethod 1: Ramp 10.00 C/min to 800.00 C
.0000	30.24	2.765
4.000	30.33	2.770
8.000	30.56	2.773
12.00	30.79	2.775
16.00	31.07	2.777
20.00	31.25	2.778
24.00	31.49	2.778
28.00	31.87	2.779
32.00	32.32	2.780
36.00	32.78	2.780
40.00	33.44	2.780
44.00	33.74	2.780
48.00	34.25	2.780
52.00	34.73	2.781
56.00	35.47	2.781
60.00	36.09	2.781
64.00	36.68	2.780
68.00	37.17	2.780
72.00	37.65	2.781
76.00	38.19	2.781
80.00	38.80	2.781
84.00	39.36	2.781
88.00	39.91	2.781
92.00	40.49	2.782
96.00	41.24	2.782
100.0	41.98	2.782
104.0	42.75	2.782
108.0	43.65	2.782
112.0	44.50	2.782
116.0	45.17	2.782
120.0	45.77	2.781
124.0	46.38	2.780
128.0	47.14	2.780
132.0	47.87	2.780
136.0	48.33	2.779
140.0	48.91	2.779
144.0	49.58	2.779
148.0	50.18	2.779
152.0	50.74	2.778
156.0	51.32	2.778
160.0	51.92	2.778
164.0	52.53	2.778
168.0	53.16	2.778
172.0	53.76	2.777
176.0	54.42	2.777
180.0	54.93	2.777
184.0	55.56	2.777
188.0	56.14	2.777
192.0	56.83	2.777
196.0	57.48	2.777
200.0	58.13	2.777
204.0	58.92	2.777
208.0	59.50	2.777
212.0	60.08	2.776
216.0	60.75	2.776
220.0	61.36	2.776
224.0	62.34	2.776
228.0	62.84	2.775
232.0	63.54	2.775
236.0	64.22	2.775
240.0	64.79	2.775
244.0	65.58	2.775
248.0	66.40	2.775
252.0	67.07	2.775
256.0	67.78	2.774
260.0	68.24	2.774
264.0	68.75	2.774
268.0	69.36	2.773
272.0	70.01	2.773
276.0	70.49	2.773
280.0	71.27	2.773
284.0	71.79	2.773
288.0	72.50	2.773
292.0	73.08	2.773
296.0	73.87	2.772
300.0	74.47	2.772
304.0	75.30	2.773
308.0	76.08	2.772
312.0	76.75	2.772
316.0	77.35	2.772
320.0	78.18	2.772
324.0	78.73	2.771
328.0	79.52	2.771
332.0	80.27	2.771
336.0	80.78	2.771
340.0	81.53	2.770
344.0	82.29	2.770
348.0	82.84	2.770
352.0	83.51	2.770
356.0	84.11	2.769
360.0	84.76	2.769
364.0	85.49	2.769
368.0	86.01	2.769
372.0	86.60	2.769
376.0	87.20	2.769
380.0	87.84	2.769
384.0	88.45	2.769
388.0	89.12	2.769
392.0	89.70	2.768
396.0	90.31	2.768
400.0	90.90	2.768
404.0	91.52	2.768
408.0	92.40	2.768
412.0	93.04	2.768
416.0	93.69	2.768
420.0	94.41	2.768
424.0	95.08	2.768
428.0	95.91	2.767
432.0	96.51	2.767
436.0	97.33	2.767
440.0	98.07	2.767
444.0	98.67	2.767
448.0	99.39	2.767
452.0	100.1	2.766
456.0	100.8	2.766
460.0	101.4	2.766
464.0	101.9	2.766
468.0	102.6	2.765
472.0	103.1	2.765
476.0	103.7	2.765
480.0	104.2	2.765
484.0	104.9	2.765
488.0	105.6	2.765
492.0	106.2	2.765
496.0	106.8	2.765
500.0	107.6	2.765
504.0	108.2	2.765
508.0	108.9	2.765
512.0	109.6	2.764
516.0	110.3	2.764
520.0	110.9	2.764
524.0	111.8	2.764
528.0	112.4	2.764
532.0	113.2	2.764
536.0	113.8	2.764
540.0	114.4	2.764
544.0	115.1	2.763
548.0	115.7	2.763
552.0	116.4	2.763
556.0	117.1	2.763
560.0	117.7	2.763
564.0	118.2	2.763
568.0	118.7	2.762
572.0	119.4	2.763
576.0	120.0	2.763
580.0	120.7	2.763
584.0	121.4	2.762
588.0	121.9	2.762
592.0	122.7	2.762
596.0	123.5	2.762
600.0	124.2	2.762
604.0	124.9	2.762
608.0	125.6	2.762
612.0	126.4	2.762
616.0	127.1	2.762
620.0	127.9	2.761
624.0	128.6	2.761
628.0	129.3	2.761
632.0	129.9	2.761
636.0	130.5	2.761
640.0	131.0	2.761
644.0	131.6	2.760
648.0	132.2	2.760
652.0	132.7	2.760
656.0	133.5	2.760
660.0	134.1	2.760
664.0	134.8	2.760
668.0	135.3	2.760
672.0	136.1	2.760
676.0	136.8	2.760
680.0	137.4	2.760
684.0	138.1	2.760
688.0	139.0	2.760
692.0	139.6	2.760
696.0	140.1	2.759
700.0	140.9	2.760
704.0	141.5	2.759
708.0	142.3	2.760
712.0	142.9	2.759
716.0	143.7	2.759
720.0	144.3	2.759
724.0	144.9	2.759
728.0	145.8	2.759
732.0	146.3	2.759
736.0	147.0	2.759
740.0	147.6	2.759
744.0	148.3	2.758
748.0	148.9	2.758
752.0	149.6	2.759
756.0	150.2	2.758
760.0	150.9	2.758
764.0	151.5	2.758
768.0	152.2	2.758
772.0	152.9	2.758
776.0	153.6	2.758
780.0	154.2	2.758
784.0	155.0	2.758
788.0	155.5	2.758
792.0	156.2	2.758
796.0	157.0	2.758
800.0	157.6	2.758
804.0	158.2	2.758
808.0	158.9	2.758
812.0	159.5	2.758
816.0	160.2	2.758
820.0	160.8	2.757
824.0	161.5	2.757
828.0	162.1	2.757
832.0	163.0	2.757
836.0	163.6	2.757
840.0	164.2	2.757
844.0	165.0	2.757
848.0	165.6	2.757
852.0	166.3	2.757
856.0	167.0	2.757
860.0	167.8	2.757
864.0	168.5	2.757
868.0	169.2	2.756
872.0	169.7	2.756
876.0	170.4	2.756
880.0	171.0	2.756
884.0	171.6	2.756
888.0	172.3	2.756
892.0	172.9	2.756
896.0	173.6	2.756
900.0	174.1	2.756
904.0	174.7	2.755
908.0	175.4	2.755
912.0	176.1	2.756
916.0	176.9	2.756
920.0	177.5	2.756
924.0	178.4	2.755
928.0	179.2	2.755
932.0	179.9	2.755
936.0	180.5	2.755
940.0	181.2	2.755
944.0	181.9	2.755
948.0	182.3	2.755
952.0	183.0	2.755
956.0	183.7	2.754
960.0	184.2	2.754
964.0	184.8	2.754
968.0	185.4	2.754
972.0	186.0	2.754
976.0	186.7	2.754
980.0	187.4	2.754
984.0	188.0	2.754
988.0	188.6	2.754
992.0	189.3	2.754
996.0	190.1	2.754
1000.	190.8	2.753
1004.	191.6	2.753
1008.	192.3	2.753
1012.	193.0	2.753
1016.	193.7	2.753
1020.	194.4	2.753
1024.	195.1	2.753
1028.	195.9	2.752
1032.	196.5	2.752
1036.	197.2	2.752
1040.	197.7	2.752
1044.	198.5	2.752
1048.	199.1	2.751
1052.	199.6	2.751
1056.	200.1	2.751
1060.	200.8	2.751
1064.	201.4	2.751
1068.	202.1	2.751
1072.	202.7	2.751
1076.	203.5	2.751
1080.	204.1	2.751
1084.	204.8	2.750
1088.	205.6	2.750
1092.	206.3	2.750
1096.	207.0	2.750
1100.	207.9	2.750
1104.	208.6	2.749
1108.	209.2	2.749
1112.	209.8	2.749
1116.	210.5	2.749
1120.	211.1	2.748
1124.	211.9	2.748
1128.	212.4	2.748
1132.	213.0	2.748
1136.	213.7	2.747
1140.	214.1	2.747
1144.	214.7	2.747
1148.	215.3	2.747
1152.	216.0	2.746
1156.	216.9	2.746
1160.	217.5	2.746
1164.	218.2	2.746
1168.	218.9	2.746
1172.	219.6	2.745
1176.	220.3	2.745
1180.	221.2	2.745
1184.	222.0	2.745
1188.	222.7	2.744
1192.	223.3	2.744
1196.	224.0	2.744
1200.	224.7	2.743
1204.	225.1	2.743
1208.	225.7	2.742
1212.	226.4	2.742
1216.	226.9	2.742
1220.	227.5	2.741
1224.	228.1	2.741
1228.	228.9	2.740
1232.	229.4	2.741
1236.	230.1	2.740
1240.	230.9	2.740
1244.	231.5	2.739
1248.	232.3	2.739
1252.	232.8	2.738
1256.	233.5	2.738
1260.	234.2	2.738
1264.	235.0	2.737
1268.	235.8	2.737
1272.	236.5	2.736
1276.	237.1	2.736
1280.	237.7	2.735
1284.	238.4	2.735
1288.	239.1	2.734
1292.	239.6	2.734
1296.	240.3	2.733
1300.	240.9	2.733
1304.	241.6	2.732
1308.	242.2	2.732
1312.	242.7	2.731
1316.	243.5	2.731
1320.	244.2	2.730
1324.	245.0	2.729
1328.	245.6	2.729
1332.	246.3	2.728
1336.	247.0	2.728
1340.	247.7	2.727
1344.	248.5	2.727
1348.	249.1	2.726
1352.	249.8	2.725
1356.	250.4	2.724
1360.	250.9	2.724
1364.	251.6	2.723
1368.	252.2	2.723
1372.	252.9	2.722
1376.	253.5	2.722
1380.	254.2	2.721
1384.	254.8	2.720
1388.	255.5	2.720
1392.	256.2	2.719
1396.	256.9	2.719
1400.	257.6	2.718
1404.	258.4	2.717
1408.	259.1	2.717
1412.	259.8	2.716
1416.	260.6	2.715
1420.	261.3	2.715
1424.	261.9	2.714
1428.	262.6	2.713
1432.	263.2	2.713
1436.	263.8	2.712
1440.	264.4	2.711
1444.	265.0	2.711
1448.	265.6	2.710
1452.	266.3	2.710
1456.	266.8	2.709
1460.	267.5	2.708
1464.	268.2	2.708
1468.	268.9	2.707
1472.	269.6	2.707
1476.	270.4	2.706
1480.	271.2	2.706
1484.	271.8	2.705
1488.	272.6	2.704
1492.	273.3	2.703
1496.	273.9	2.703
1500.	274.6	2.702
1504.	275.2	2.701
1508.	275.8	2.701
1512.	276.4	2.700
1516.	276.9	2.699
1520.	277.6	2.699
1524.	278.2	2.698
1528.	278.8	2.698
1532.	279.6	2.697
1536.	280.4	2.696
1540.	281.0	2.696
1544.	281.7	2.695
1548.	282.4	2.694
1552.	283.2	2.693
1556.	283.9	2.693
1560.	284.5	2.692
1564.	285.1	2.691
1568.	285.8	2.690
1572.	286.3	2.690
1576.	287.0	2.689
1580.	287.7	2.688
1584.	288.4	2.688
1588.	289.0	2.687
1592.	289.5	2.686
1596.	290.2	2.685
1600.	290.8	2.685
1604.	291.5	2.684
1608.	292.1	2.683
1612.	293.0	2.683
1616.	293.8	2.682
1620.	294.5	2.681
1624.	295.2	2.681
1628.	295.8	2.679
1632.	296.6	2.679
1636.	297.3	2.678
1640.	298.0	2.677
1644.	298.6	2.676
1648.	299.2	2.675
1652.	299.7	2.675
1656.	300.4	2.674
1660.	301.1	2.673
1664.	301.6	2.672
1668.	302.3	2.671
1672.	303.0	2.671
1676.	303.7	2.670
1680.	304.3	2.669
1684.	305.0	2.668
1688.	305.6	2.667
1692.	306.5	2.667
1696.	307.1	2.666
1700.	307.8	2.665
1704.	308.4	2.664
1708.	309.1	2.663
1712.	309.9	2.662
1716.	310.5	2.662
1720.	311.1	2.660
1724.	311.8	2.660
1728.	312.6	2.659
1732.	313.2	2.658
1736.	313.7	2.657
1740.	314.3	2.656
1744.	315.0	2.655
1748.	315.5	2.654
1752.	316.1	2.654
1756.	316.8	2.653
1760.	317.5	2.652
1764.	318.1	2.651
1768.	318.9	2.650
1772.	319.5	2.649
1776.	320.2	2.648
1780.	321.0	2.647
1784.	321.7	2.646
1788.	322.4	2.645
1792.	323.0	2.644
1796.	323.7	2.643
1800.	324.4	2.643
1804.	325.0	2.642
1808.	325.6	2.640
1812.	326.2	2.640
1816.	326.9	2.639
1820.	327.5	2.638
1824.	328.1	2.637
1828.	328.9	2.636
1832.	329.7	2.635
1836.	330.4	2.634
1840.	331.0	2.633
1844.	331.7	2.632
1848.	332.4	2.631
1852.	333.0	2.630
1856.	333.6	2.630
1860.	334.2	2.629
1864.	334.9	2.627
1868.	335.5	2.627
1872.	336.3	2.626
1876.	336.8	2.625
1880.	337.5	2.624
1884.	338.2	2.623
1888.	338.9	2.621
1892.	339.6	2.621
1896.	340.3	2.620
1900.	341.0	2.619
1904.	341.6	2.618
1908.	342.3	2.617
1912.	342.9	2.616
1916.	343.6	2.614
1920.	344.2	2.613
1924.	344.8	2.612
1928.	345.5	2.611
1932.	346.2	2.610
1936.	346.9	2.609
1940.	347.6	2.608
1944.	348.3	2.607
1948.	349.0	2.605
1952.	349.6	2.604
1956.	350.4	2.603
1960.	351.1	2.602
1964.	351.9	2.601
1968.	352.4	2.599
1972.	353.0	2.598
1976.	353.6	2.597
1980.	354.2	2.596
1984.	354.9	2.595
1988.	355.6	2.593
1992.	356.3	2.592
1996.	357.1	2.591
2000.	357.8	2.589
2004.	358.3	2.588
2008.	358.9	2.587
2012.	359.8	2.585
2016.	360.4	2.583
2020.	361.1	2.582
2024.	361.7	2.581
2028.	362.4	2.579
2032.	363.2	2.578
2036.	363.9	2.576
2040.	364.6	2.575
2044.	365.2	2.573
2048.	365.8	2.572
2052.	366.5	2.570
2056.	367.0	2.568
2060.	367.6	2.567
2064.	368.2	2.565
2068.	368.8	2.563
2072.	369.5	2.562
2076.	370.2	2.561
2080.	370.9	2.558
2084.	371.6	2.557
2088.	372.3	2.555
2092.	373.0	2.553
2096.	373.7	2.552
2100.	374.4	2.549
2104.	375.0	2.548
2108.	375.7	2.546
2112.	376.4	2.544
2116.	377.0	2.542
2120.	377.7	2.540
2124.	378.4	2.538
2128.	379.0	2.536
2132.	379.7	2.534
2136.	380.5	2.531
2140.	381.0	2.529
2144.	381.8	2.527
2148.	382.3	2.525
2152.	383.0	2.523
2156.	383.7	2.520
2160.	384.3	2.518
2164.	384.9	2.515
2168.	385.6	2.513
2172.	386.3	2.511
2176.	386.9	2.508
2180.	387.6	2.505
2184.	388.2	2.503
2188.	388.9	2.500
2192.	389.5	2.498
2196.	390.2	2.495
2200.	390.9	2.492
2204.	391.5	2.489
2208.	392.1	2.486
2212.	393.0	2.484
2216.	393.7	2.481
2220.	394.3	2.478
2224.	395.0	2.475
2228.	395.6	2.472
2232.	396.3	2.469
2236.	396.9	2.466
2240.	397.5	2.463
2244.	398.2	2.460
2248.	398.9	2.457
2252.	399.5	2.453
2256.	400.1	2.450
2260.	400.8	2.447
2264.	401.5	2.443
2268.	402.1	2.440
2272.	402.8	2.436
2276.	403.6	2.433
2280.	404.2	2.429
2284.	405.0	2.425
2288.	405.7	2.421
2292.	406.4	2.417
2296.	407.1	2.413
2300.	407.6	2.409
2304.	408.3	2.405
2308.	409.0	2.401
2312.	409.6	2.397
2316.	410.3	2.392
2320.	410.9	2.389
2324.	411.6	2.385
2328.	412.2	2.380
2332.	413.0	2.376
2336.	413.6	2.371
2340.	414.3	2.367
2344.	414.9	2.363
2348.	415.6	2.358
2352.	416.2	2.354
2356.	416.9	2.350
2360.	417.6	2.345
2364.	418.3	2.341
2368.	418.9	2.337
2372.	419.7	2.332
2376.	420.4	2.329
2380.	421.0	2.325
2384.	421.6	2.320
2388.	422.3	2.316
2392.	422.9	2.313
2396.	423.5	2.309
2400.	424.2	2.306
2404.	425.0	2.303
2408.	425.7	2.299
2412.	426.4	2.296
2416.	427.0	2.293
2420.	427.7	2.290
2424.	428.4	2.288
2428.	429.2	2.285
2432.	429.7	2.283
2436.	430.4	2.280
2440.	431.0	2.277
2444.	431.6	2.275
2448.	432.3	2.273
2452.	433.0	2.271
2456.	433.6	2.269
2460.	434.2	2.267
2464.	435.0	2.264
2468.	435.7	2.262
2472.	436.4	2.260
2476.	437.1	2.258
2480.	437.8	2.255
2484.	438.4	2.253
2488.	439.1	2.251
2492.	439.7	2.249
2496.	440.3	2.247
2500.	440.9	2.245
2504.	441.6	2.243
2508.	442.3	2.241
2512.	443.0	2.239
2516.	443.7	2.237
2520.	444.4	2.235
2524.	445.1	2.233
2528.	445.8	2.231
2532.	446.5	2.229
2536.	447.2	2.227
2540.	447.9	2.225
2544.	448.5	2.223
2548.	449.1	2.221
2552.	449.7	2.219
2556.	450.3	2.217
2560.	451.0	2.216
2564.	451.7	2.214
2568.	452.3	2.212
2572.	453.0	2.210
2576.	453.6	2.209
2580.	454.3	2.207
2584.	455.1	2.205
2588.	455.7	2.204
2592.	456.4	2.202
2596.	457.1	2.200
2600.	457.8	2.199
2604.	458.4	2.197
2608.	459.0	2.196
2612.	459.6	2.194
2616.	460.3	2.193
2620.	460.9	2.192
2624.	461.7	2.190
2628.	462.3	2.188
2632.	463.0	2.187
2636.	463.7	2.186
2640.	464.4	2.185
2644.	465.1	2.183
2648.	465.7	2.182
2652.	466.4	2.181
2656.	467.1	2.180
2660.	467.9	2.178
2664.	468.5	2.178
2668.	469.1	2.177
2672.	469.7	2.176
2676.	470.4	2.175
2680.	471.0	2.173
2684.	471.6	2.173
2688.	472.2	2.172
2692.	472.8	2.171
2696.	473.6	2.170
2700.	474.3	2.169
2704.	475.0	2.168
2708.	475.8	2.167
2712.	476.4	2.166
2716.	477.0	2.165
2720.	477.9	2.164
2724.	478.4	2.163
2728.	479.2	2.163
2732.	479.8	2.162
2736.	480.5	2.161
2740.	481.1	2.161
2744.	481.9	2.160
2748.	482.5	2.159
2752.	483.2	2.158
2756.	483.7	2.158
2760.	484.4	2.157
2764.	485.1	2.157
2768.	485.7	2.156
2772.	486.4	2.156
2776.	487.1	2.155
2780.	487.8	2.155
2784.	488.4	2.154
2788.	489.1	2.153
2792.	489.7	2.153
2796.	490.3	2.152
2800.	491.0	2.152
2804.	491.8	2.151
2808.	492.4	2.151
2812.	493.2	2.150
2816.	493.8	2.150
2820.	494.4	2.150
2824.	495.1	2.149
2828.	495.6	2.149
2832.	496.1	2.148
2836.	496.8	2.148
2840.	497.6	2.147
2844.	498.3	2.147
2848.	499.0	2.147
2852.	499.8	2.146
2856.	500.4	2.147
2860.	501.1	2.146
2864.	501.8	2.145
2868.	502.4	2.145
2872.	503.1	2.144
2876.	503.8	2.144
2880.	504.4	2.144
2884.	505.0	2.144
2888.	505.7	2.144
2892.	506.2	2.143
2896.	506.9	2.143
2900.	507.5	2.143
2904.	508.2	2.143
2908.	509.0	2.142
2912.	509.7	2.142
2916.	510.4	2.142
2920.	511.1	2.142
2924.	511.7	2.142
2928.	512.4	2.141
2932.	513.1	2.141
2936.	513.8	2.141
2940.	514.5	2.141
2944.	515.2	2.141
2948.	515.7	2.141
2952.	516.4	2.140
2956.	517.0	2.140
2960.	517.7	2.140
2964.	518.4	2.140
2968.	519.0	2.140
2972.	519.7	2.140
2976.	520.5	2.140
2980.	521.0	2.140
2984.	521.7	2.140
2988.	522.4	2.140
2992.	523.1	2.139
2996.	523.8	2.139
3000.	524.4	2.139
3004.	525.1	2.140
3008.	525.7	2.139
3012.	526.4	2.139
3016.	527.1	2.139
3020.	527.7	2.140
3024.	528.4	2.139
3028.	528.9	2.139
3032.	529.7	2.139
3036.	530.4	2.139
3040.	531.0	2.139
3044.	531.6	2.139
3048.	532.3	2.139
3052.	533.0	2.139
3056.	533.5	2.139
3060.	534.2	2.139
3064.	534.9	2.139
3068.	535.5	2.139
3072.	536.3	2.139
3076.	536.9	2.139
3080.	537.7	2.139
3084.	538.2	2.139
3088.	538.9	2.139
3092.	539.5	2.139
3096.	540.2	2.139
3100.	540.9	2.139
3104.	541.6	2.139
3108.	542.3	2.139
3112.	542.9	2.139
3116.	543.5	2.139
3120.	544.1	2.139
3124.	544.8	2.139
3128.	545.6	2.139
3132.	546.4	2.139
3136.	547.0	2.139
3140.	547.7	2.139
3144.	548.3	2.139
3148.	548.9	2.139
3152.	549.7	2.139
3156.	550.3	2.139
3160.	551.0	2.139
3164.	551.6	2.139
3168.	552.1	2.139
3172.	552.8	2.139
3176.	553.5	2.139
3180.	554.1	2.139
3184.	554.8	2.139
3188.	555.6	2.139
3192.	556.3	2.139
3196.	556.8	2.139
3200.	557.4	2.139
3204.	558.1	2.139
3208.	558.8	2.139
3212.	559.6	2.139
3216.	560.3	2.139
3220.	560.9	2.139
3224.	561.7	2.139
3228.	562.3	2.139
3232.	563.0	2.140
3236.	563.6	2.140
3240.	564.3	2.139
3244.	564.9	2.140
3248.	565.5	2.140
3252.	566.2	2.140
3256.	566.8	2.140
3260.	567.5	2.140
3264.	568.2	2.140
3268.	568.8	2.140
3272.	569.5	2.140
3276.	570.2	2.140
3280.	570.8	2.140
3284.	571.5	2.140
3288.	572.2	2.140
3292.	573.0	2.140
3296.	573.8	2.140
3300.	574.4	2.140
3304.	575.1	2.140
3308.	575.8	2.141
3312.	576.4	2.140
3316.	577.0	2.141
3320.	577.7	2.141
3324.	578.2	2.141
3328.	578.9	2.141
3332.	579.6	2.141
3336.	580.3	2.141
3340.	581.0	2.141
3344.	581.7	2.141
3348.	582.4	2.142
3352.	583.1	2.142
3356.	583.8	2.142
3360.	584.3	2.142
3364.	585.0	2.142
3368.	585.7	2.142
3372.	586.3	2.142
3376.	587.0	2.142
3380.	587.6	2.142
3384.	588.3	2.142
3388.	589.0	2.142
3392.	589.5	2.142
3396.	590.2	2.143
3400.	590.8	2.143
3404.	591.4	2.143
3408.	592.1	2.143
3412.	592.8	2.143
3416.	593.6	2.143
3420.	594.3	2.143
3424.	594.9	2.143
3428.	595.6	2.143
3432.	596.3	2.143
3436.	596.9	2.143
3440.	597.6	2.143
3444.	598.3	2.143
3448.	599.0	2.144
3452.	599.6	2.144
3456.	600.3	2.144
3460.	600.9	2.144
3464.	601.6	2.144
3468.	602.3	2.144
3472.	602.9	2.144
3476.	603.5	2.144
3480.	604.2	2.145
3484.	604.9	2.144
3488.	605.4	2.145
3492.	606.2	2.145
3496.	606.9	2.144
3500.	607.6	2.145
3504.	608.2	2.145
3508.	609.0	2.145
3512.	609.6	2.144
3516.	610.4	2.145
3520.	611.0	2.145
3524.	611.6	2.145
3528.	612.2	2.145
3532.	612.9	2.145
3536.	613.6	2.145
3540.	614.3	2.145
3544.	615.0	2.145
3548.	615.7	2.145
3552.	616.3	2.145
3556.	616.9	2.145
3560.	617.6	2.145
3564.	618.4	2.144
3568.	619.0	2.145
3572.	619.8	2.145
3576.	620.4	2.144
3580.	621.0	2.145
3584.	621.6	2.144
3588.	622.4	2.144
3592.	622.9	2.145
3596.	623.6	2.144
3600.	624.4	2.145
3604.	625.1	2.145
3608.	625.8	2.145
3612.	626.6	2.144
3616.	627.3	2.144
3620.	627.9	2.144
3624.	628.4	2.144
3628.	629.2	2.144
3632.	629.9	2.144
3636.	630.6	2.144
3640.	631.2	2.144
3644.	631.9	2.144
3648.	632.7	2.144
3652.	633.3	2.143
3656.	634.0	2.143
3660.	634.7	2.143
3664.	635.4	2.143
3668.	636.1	2.143
3672.	636.7	2.143
3676.	637.3	2.142
3680.	638.0	2.142
3684.	638.7	2.142
3688.	639.3	2.142
3692.	639.9	2.142
3696.	640.6	2.142
3700.	641.2	2.141
3704.	642.0	2.141
3708.	642.6	2.141
3712.	643.3	2.141
3716.	644.0	2.141
3720.	644.7	2.141
3724.	645.4	2.140
3728.	646.1	2.140
3732.	646.6	2.140
3736.	647.3	2.140
3740.	647.9	2.140
3744.	648.7	2.140
3748.	649.3	2.140
3752.	650.0	2.140
3756.	650.7	2.139
3760.	651.4	2.139
3764.	652.1	2.139
3768.	652.7	2.139
3772.	653.5	2.139
3776.	654.1	2.139
3780.	654.8	2.139
3784.	655.6	2.139
3788.	656.1	2.139
3792.	656.8	2.139
3796.	657.4	2.138
3800.	658.1	2.138
3804.	658.8	2.138
3808.	659.5	2.138
3812.	660.1	2.138
3816.	660.8	2.138
3820.	661.4	2.138
3824.	662.0	2.138
3828.	662.8	2.138
3832.	663.4	2.138
3836.	664.1	2.137
3840.	664.8	2.138
3844.	665.4	2.137
3848.	666.0	2.137
3852.	666.7	2.137
3856.	667.4	2.137
3860.	668.2	2.137
3864.	668.9	2.137
3868.	669.5	2.137
3872.	670.1	2.137
3876.	670.7	2.137
3880.	671.3	2.137
3884.	672.2	2.137
3888.	672.8	2.137
3892.	673.5	2.137
3896.	674.2	2.137
3900.	675.0	2.137
3904.	675.5	2.137
3908.	676.1	2.137
3912.	676.8	2.137
3916.	677.5	2.137
3920.	678.2	2.136
3924.	678.9	2.136
3928.	679.6	2.136
3932.	680.2	2.136
3936.	680.9	2.136
3940.	681.6	2.136
3944.	682.3	2.135
3948.	683.0	2.136
3952.	683.8	2.136
3956.	684.2	2.137
3960.	684.9	2.137
3964.	685.6	2.136
3968.	686.3	2.136
3972.	686.9	2.135
3976.	687.5	2.135
3980.	688.3	2.135
3984.	688.9	2.135
3988.	689.7	2.135
3992.	690.2	2.135
3996.	690.9	2.135
4000.	691.6	2.135
4004.	692.2	2.135
4008.	692.9	2.135
4012.	693.5	2.135
4016.	694.2	2.135
4020.	694.9	2.135
4024.	695.5	2.135
4028.	696.2	2.135
4032.	696.8	2.135
4036.	697.6	2.134
4040.	698.2	2.134
4044.	699.0	2.134
4048.	699.7	2.134
4052.	700.4	2.134
4056.	701.1	2.135
4060.	701.7	2.135
4064.	702.3	2.135
4068.	702.9	2.135
4072.	703.5	2.135
4076.	704.1	2.135
4080.	704.8	2.135
4084.	705.5	2.134
4088.	706.2	2.135
4092.	706.9	2.134
4096.	707.6	2.134
4100.	708.2	2.134
4104.	708.8	2.134
4108.	709.6	2.134
4112.	710.3	2.134
4116.	711.0	2.134
4120.	711.7	2.134
4124.	712.3	2.134
4128.	713.0	2.134
4132.	713.6	2.134
4136.	714.2	2.134
4140.	714.8	2.134
4144.	715.6	2.134
4148.	716.3	2.134
4152.	717.0	2.134
4156.	717.7	2.134
4160.	718.3	2.134
4164.	718.9	2.134
4168.	719.6	2.134
4172.	720.3	2.135
4176.	721.0	2.135
4180.	721.7	2.135
4184.	722.3	2.135
4188.	723.1	2.134
4192.	723.7	2.135
4196.	724.4	2.135
4200.	725.1	2.135
4204.	725.7	2.135
4208.	726.4	2.135
4212.	727.0	2.135
4216.	727.7	2.135
4220.	728.4	2.135
4224.	729.1	2.135
4228.	729.7	2.135
4232.	730.3	2.135
4236.	731.0	2.135
4240.	731.7	2.135
4244.	732.5	2.135
4248.	733.1	2.135
4252.	733.8	2.135
4256.	734.4	2.136
4260.	735.1	2.136
4264.	735.7	2.136
4268.	736.3	2.136
4272.	737.0	2.136
4276.	737.6	2.136
4280.	738.3	2.136
4284.	739.0	2.136
4288.	739.6	2.136
4292.	740.5	2.137
4296.	741.1	2.137
4300.	741.8	2.137
4304.	742.4	2.137
4308.	743.0	2.137
4312.	743.8	2.137
4316.	744.5	2.137
4320.	745.0	2.137
4324.	745.8	2.137
4328.	746.4	2.137
4332.	747.1	2.137
4336.	747.8	2.138
4340.	748.4	2.138
4344.	749.1	2.138
4348.	749.8	2.138
4352.	750.4	2.138
4356.	751.1	2.138
4360.	751.8	2.138
4364.	752.4	2.138
4368.	753.1	2.138
4372.	753.8	2.138
4376.	754.5	2.139
4380.	755.1	2.139
4384.	755.8	2.139
4388.	756.5	2.139
4392.	757.1	2.139
4396.	757.9	2.139
4400.	758.6	2.139
4404.	759.2	2.139
4408.	759.9	2.139
4412.	760.5	2.139
4416.	761.2	2.139
4420.	761.9	2.139
4424.	762.5	2.139
4428.	763.2	2.139
4432.	763.9	2.140
4436.	764.5	2.140
4440.	765.2	2.140
4444.	765.9	2.140
4448.	766.6	2.140
4452.	767.3	2.141
4456.	767.9	2.141
4460.	768.5	2.141
4464.	769.1	2.141
4468.	769.9	2.141
4472.	770.6	2.141
4476.	771.2	2.142
4480.	771.9	2.141
4484.	772.5	2.142
4488.	773.2	2.142
4492.	773.8	2.142
4496.	774.4	2.142
4500.	775.1	2.143
4504.	775.9	2.143
4508.	776.4	2.143
4512.	777.2	2.143
4516.	777.8	2.143
4520.	778.5	2.143
4524.	779.1	2.143
4528.	779.8	2.144
4532.	780.4	2.144
4536.	781.1	2.144
4540.	781.7	2.144
4544.	782.4	2.144
4548.	783.1	2.144
4552.	783.8	2.144
4556.	784.5	2.144
4560.	785.1	2.144
4564.	785.9	2.144
4568.	786.6	2.144
4572.	787.2	2.145
4576.	787.9	2.145
4580.	788.5	2.145
4584.	789.2	2.145
4588.	789.8	2.145
4592.	790.4	2.145
4596.	791.1	2.145
4600.	791.7	2.145
4604.	792.5	2.145
4608.	793.1	2.145
4612.	793.8	2.146
4616.	794.5	2.146
4620.	795.2	2.146
4624.	795.8	2.146
4628.	796.5	2.146
4632.	797.2	2.146
4636.	797.9	2.146
4640.	798.5	2.146
4644.	799.2	2.146
4648.	799.9	2.146