File: 220623 - TG_TGA/RESINA-A-TA.txt
nstrument TGA-50H
Module TGA-50H
Operator LJ - LATAT
Sample Kit10-Resina-A
Size 6.694 mg
Method
Comment
Xcomment Pan: Platinum
Xcomment Gas1: Nitrogen
Xcomment Balance Gas: Nitrogen 20.0 ml/min
Xcomment Sample Gas: Nitrogen 20.0 ml/min
Nsig 3
Sig1 Time (sec)
Sig2 Temperature (C)
Sig3 Weight (mg)
OrgMethod 1: Ramp 10.00 C/min to 800.00 C
0	28.54	6.69457
4	28.5	6.69872
8	28.47	6.70096
12	28.57	6.70247
16	28.71	6.70319
20	28.85	6.70445
24	29.01	6.70515
28	29.4	6.70558
32	29.79	6.70603
36	30.12	6.70632
40	30.36	6.70677
44	30.77	6.70711
48	31.28	6.70734
52	31.74	6.7074
56	31.93	6.70745
60	32.36	6.70775
64	32.76	6.70825
68	33.23	6.70851
72	33.75	6.70905
76	34.25	6.70966
80	34.97	6.7101
84	35.65	6.71072
88	36.53	6.71105
92	37.05	6.71124
96	37.67	6.71158
100	38.51	6.71163
104	39.02	6.71191
108	39.77	6.71187
112	40.55	6.7118
116	41.38	6.71171
120	41.92	6.7115
124	42.72	6.71118
128	43.38	6.71091
132	44.06	6.7108
136	44.75	6.71015
140	45.4	6.70988
144	45.91	6.70976
148	46.64	6.70946
152	47.23	6.70902
156	47.92	6.70848
160	48.4	6.70806
164	48.95	6.70788
168	49.64	6.7077
172	50.29	6.70757
176	50.92	6.7073
180	51.54	6.7073
184	52.14	6.70688
188	52.79	6.70672
192	53.46	6.70633
196	54.13	6.70593
200	54.96	6.70554
204	55.73	6.70497
208	56.32	6.70465
212	56.87	6.70416
216	57.61	6.70336
220	58.22	6.70303
224	58.97	6.70254
228	59.6	6.70213
232	60.35	6.70158
236	61.01	6.70074
240	61.66	6.69998
244	62.38	6.69907
248	63	6.69861
252	63.67	6.69782
256	64.24	6.69715
260	64.79	6.69646
264	65.42	6.69636
268	66.07	6.69543
272	66.66	6.69479
276	67.38	6.69364
280	68.03	6.69281
284	68.67	6.69184
288	69.35	6.69128
292	69.85	6.69057
296	70.74	6.68955
300	71.34	6.68854
304	72.14	6.68774
308	72.85	6.68717
312	73.42	6.68584
316	74.14	6.68452
320	74.82	6.68391
324	75.53	6.68226
328	76.11	6.68133
332	76.74	6.68066
336	77.42	6.67884
340	78.09	6.67837
344	78.66	6.67711
348	79.41	6.67544
352	79.94	6.67464
356	80.73	6.67341
360	81.44	6.67185
364	81.99	6.67094
368	82.69	6.66975
372	83.4	6.66769
376	83.97	6.66685
380	84.61	6.66489
384	85.37	6.66348
388	85.97	6.66265
392	86.61	6.6608
396	87.28	6.65916
400	87.9	6.65845
404	88.47	6.65593
408	89.23	6.65452
412	89.92	6.65342
416	90.72	6.65093
420	91.29	6.64944
424	91.93	6.64802
428	92.73	6.64559
432	93.22	6.64371
436	93.88	6.64235
440	94.62	6.6405
444	95.28	6.63841
448	95.95	6.63599
452	96.39	6.63444
456	97.03	6.63262
460	97.65	6.63038
464	98.32	6.62807
468	99.04	6.62588
472	99.6	6.6237
476	100.2	6.6219
480	101	6.62014
484	101.7	6.61793
488	102.4	6.61538
492	103.1	6.61278
496	103.9	6.61012
500	104.7	6.60781
504	105.4	6.60557
508	106	6.60316
512	106.5	6.60111
516	107.2	6.59819
520	107.8	6.59543
524	108.5	6.59253
528	109.1	6.58969
532	109.6	6.58696
536	110.3	6.58452
540	111	6.582
544	111.6	6.57954
548	112.3	6.57684
552	112.9	6.57379
556	113.5	6.5708
560	114.3	6.56763
564	115	6.56486
568	115.7	6.56221
572	116.5	6.55922
576	117.2	6.55619
580	117.9	6.55302
584	118.5	6.54911
588	119.2	6.54563
592	119.8	6.54244
596	120.5	6.53922
600	121.3	6.5362
604	121.8	6.53288
608	122.5	6.52935
612	123.2	6.52575
616	123.8	6.52237
620	124.3	6.51872
624	124.9	6.51514
628	125.5	6.51162
632	126.2	6.50829
636	126.8	6.50514
640	127.5	6.50213
644	128.2	6.49883
648	129	6.49551
652	129.8	6.49143
656	130.7	6.4875
660	131.2	6.48403
664	131.9	6.48058
668	132.5	6.47728
672	133.2	6.47332
676	133.8	6.46955
680	134.5	6.46683
684	135	6.46175
688	135.7	6.45802
692	136.3	6.4541
696	137	6.4502
700	137.6	6.44651
704	138.3	6.44299
708	139	6.43995
712	139.7	6.43596
716	140.3	6.43217
720	141	6.42808
724	141.6	6.42471
728	142.2	6.42064
732	142.8	6.41671
736	143.5	6.41302
740	144.3	6.40918
744	144.9	6.4059
748	145.6	6.40212
752	146.3	6.39865
756	147	6.39473
760	147.7	6.39076
764	148.4	6.38681
768	149.1	6.383
772	149.9	6.37885
776	150.4	6.37476
780	151	6.37074
784	151.7	6.36691
788	152.4	6.36314
792	153	6.35964
796	153.6	6.35577
800	154.3	6.35179
804	154.8	6.34847
808	155.4	6.34483
812	156.2	6.34105
816	156.8	6.33736
820	157.5	6.3338
824	158.1	6.33044
828	158.9	6.32661
832	159.5	6.32288
836	160.2	6.31898
840	160.9	6.31548
844	161.6	6.31218
848	162.1	6.30827
852	162.9	6.30505
856	163.6	6.30151
860	164.2	6.29782
864	164.9	6.29389
868	165.6	6.29067
872	166.3	6.28705
876	167.1	6.28326
880	167.7	6.27958
884	168.2	6.27628
888	168.9	6.27266
892	169.6	6.26923
896	170.3	6.26542
900	170.8	6.26197
904	171.6	6.25859
908	172.3	6.25529
912	172.9	6.25215
916	173.5	6.24868
920	174.1	6.24526
924	174.9	6.24184
928	175.6	6.23861
932	176.3	6.23551
936	176.9	6.23219
940	177.6	6.22872
944	178.3	6.2255
948	179	6.22177
952	179.6	6.2187
956	180.2	6.2156
960	181	6.21245
964	181.6	6.20921
968	182.2	6.20577
972	182.9	6.2025
976	183.7	6.19946
980	184.3	6.19676
984	185.1	6.1936
988	185.7	6.19042
992	186.3	6.1872
996	187	6.18386
1000	187.8	6.18084
1004	188.4	6.17786
1008	189.1	6.17512
1012	189.7	6.17218
1016	190.4	6.16922
1020	191	6.16665
1024	191.7	6.16361
1028	192.3	6.16078
1032	193	6.15849
1036	193.6	6.15543
1040	194.3	6.15242
1044	195	6.14978
1048	195.7	6.14676
1052	196.5	6.14431
1056	197.1	6.1415
1060	197.8	6.13909
1064	198.4	6.13619
1068	199.1	6.1335
1072	199.8	6.13053
1076	200.5	6.12799
1080	201.1	6.12517
1084	201.8	6.12261
1088	202.4	6.11991
1092	203.1	6.11752
1096	203.7	6.11469
1100	204.3	6.1123
1104	205	6.1097
1108	205.7	6.10704
1112	206.3	6.10464
1116	207.1	6.10195
1120	207.8	6.09947
1124	208.5	6.09699
1128	209.1	6.09464
1132	209.8	6.09189
1136	210.5	6.08928
1140	211.1	6.08662
1144	211.7	6.08409
1148	212.4	6.082
1152	213	6.07948
1156	213.6	6.0771
1160	214.2	6.07497
1164	215.1	6.07221
1168	215.8	6.06997
1172	216.5	6.06753
1176	217.1	6.06489
1180	217.8	6.06272
1184	218.5	6.06037
1188	219.2	6.05798
1192	219.9	6.05569
1196	220.5	6.05308
1200	221.1	6.0511
1204	221.7	6.04844
1208	222.3	6.04645
1212	222.9	6.04391
1216	223.6	6.04189
1220	224.2	6.03966
1224	224.9	6.03755
1228	225.7	6.0352
1232	226.5	6.03296
1236	227.1	6.03062
1240	227.9	6.0283
1244	228.7	6.02632
1248	229.4	6.02374
1252	230.1	6.02161
1256	230.7	6.01913
1260	231.3	6.01718
1264	232	6.01433
1268	232.6	6.01248
1272	233.2	6.00986
1276	233.8	6.00786
1280	234.5	6.0055
1284	235	6.00342
1288	235.7	6.00142
1292	236.4	5.99915
1296	237	5.99695
1300	237.6	5.99473
1304	238.4	5.99263
1308	239.2	5.99043
1312	239.9	5.9881
1316	240.6	5.98594
1320	241.3	5.98372
1324	242.1	5.98148
1328	242.6	5.97934
1332	243.4	5.97693
1336	243.9	5.97473
1340	244.6	5.97273
1344	245.2	5.97035
1348	245.9	5.96827
1352	246.5	5.96593
1356	247.2	5.96392
1360	247.9	5.96157
1364	248.6	5.95947
1368	249.2	5.95703
1372	249.8	5.95511
1376	250.3	5.95275
1380	250.9	5.95098
1384	251.5	5.94889
1388	252.2	5.94661
1392	252.9	5.94456
1396	253.5	5.94224
1400	254.4	5.94024
1404	255.2	5.93775
1408	256	5.93556
1412	256.7	5.93301
1416	257.4	5.93097
1420	258.1	5.9287
1424	258.8	5.92652
1428	259.4	5.92409
1432	260	5.9221
1436	260.7	5.91961
1440	261.3	5.91722
1444	261.8	5.91484
1448	262.4	5.91243
1452	262.9	5.91008
1456	263.6	5.9079
1460	264.2	5.9057
1464	264.8	5.90333
1468	265.6	5.90114
1472	266.2	5.89853
1476	267.1	5.89636
1480	267.8	5.89387
1484	268.6	5.89132
1488	269.4	5.88875
1492	270	5.88629
1496	270.7	5.88359
1500	271.4	5.88131
1504	272.1	5.87829
1508	272.8	5.87528
1512	273.3	5.87272
1516	273.9	5.87019
1520	274.5	5.86773
1524	275.2	5.86477
1528	275.8	5.86169
1532	276.4	5.85911
1536	277	5.8559
1540	277.8	5.85328
1544	278.5	5.85072
1548	279.1	5.84786
1552	279.7	5.84485
1556	280.4	5.84188
1560	281.1	5.8392
1564	281.8	5.83559
1568	282.5	5.83243
1572	283.2	5.83004
1576	283.9	5.82645
1580	284.7	5.82264
1584	285.4	5.81974
1588	286	5.81595
1592	286.7	5.81217
1596	287.3	5.80891
1600	287.9	5.80507
1604	288.4	5.80157
1608	289.1	5.79779
1612	289.6	5.79408
1616	290.4	5.7903
1620	291	5.78664
1624	291.8	5.78297
1628	292.6	5.77831
1632	293.3	5.77486
1636	294	5.77073
1640	294.8	5.76623
1644	295.5	5.76275
1648	296	5.75804
1652	296.7	5.75394
1656	297.3	5.74971
1660	297.9	5.74484
1664	298.4	5.74051
1668	299.1	5.73616
1672	299.8	5.73204
1676	300.4	5.72721
1680	301.1	5.7228
1684	301.8	5.71792
1688	302.5	5.71314
1692	303.2	5.70831
1696	303.8	5.70315
1700	304.6	5.69834
1704	305.3	5.69283
1708	305.9	5.68802
1712	306.6	5.68199
1716	307.2	5.67736
1720	307.9	5.67195
1724	308.5	5.66548
1728	309.3	5.66017
1732	310	5.65421
1736	310.7	5.64811
1740	311.4	5.6425
1744	312	5.63629
1748	312.6	5.62917
1752	313.3	5.62301
1756	314	5.61683
1760	314.6	5.61042
1764	315.3	5.60334
1768	315.9	5.5963
1772	316.5	5.58935
1776	317.2	5.58273
1780	317.9	5.57574
1784	318.6	5.568
1788	319.1	5.56009
1792	319.8	5.55231
1796	320.4	5.54468
1800	321.2	5.53706
1804	321.9	5.52942
1808	322.6	5.5213
1812	323.2	5.51252
1816	323.9	5.50357
1820	324.7	5.49441
1824	325.3	5.48524
1828	326	5.47647
1832	326.6	5.46697
1836	327.3	5.45765
1840	327.9	5.44818
1844	328.5	5.43864
1848	329.2	5.42856
1852	329.8	5.4185
1856	330.5	5.40792
1860	331.1	5.39743
1864	331.9	5.38696
1868	332.5	5.37599
1872	333.1	5.3647
1876	333.8	5.35372
1880	334.6	5.34271
1884	335.2	5.33073
1888	335.8	5.31889
1892	336.5	5.30664
1896	337.3	5.29447
1900	337.9	5.28181
1904	338.6	5.2689
1908	339.2	5.25579
1912	339.8	5.24258
1916	340.5	5.22904
1920	341.1	5.21502
1924	342.1	5.2005
1928	342.7	5.18619
1932	343.4	5.17198
1936	344.1	5.15719
1940	344.7	5.14202
1944	345.4	5.12688
1948	346	5.11172
1952	346.6	5.09607
1956	347.2	5.08012
1960	347.8	5.06435
1964	348.5	5.04785
1968	349.1	5.03118
1972	349.8	5.01404
1976	350.5	4.9972
1980	351	4.97979
1984	351.8	4.96259
1988	352.5	4.94467
1992	353.3	4.92657
1996	354.1	4.90849
2000	354.8	4.8896
2004	355.4	4.87045
2008	356.1	4.85146
2012	356.7	4.83223
2016	357.3	4.81281
2020	357.9	4.79266
2024	358.6	4.77267
2028	359.2	4.75254
2032	359.8	4.73207
2036	360.5	4.7115
2040	361.1	4.69104
2044	361.7	4.6699
2048	362.4	4.64884
2052	363.2	4.62818
2056	363.9	4.60721
2060	364.5	4.58559
2064	365.3	4.56398
2068	365.9	4.54191
2072	366.6	4.51929
2076	367.2	4.4968
2080	367.8	4.47298
2084	368.4	4.44985
2088	369.2	4.42674
2092	369.8	4.40384
2096	370.5	4.38021
2100	371.2	4.35688
2104	371.9	4.33217
2108	372.5	4.30801
2112	373.2	4.28335
2116	373.9	4.25846
2120	374.6	4.23353
2124	375	4.20885
2128	375.7	4.18356
2132	376.3	4.1582
2136	377	4.13287
2140	377.8	4.10653
2144	378.5	4.08026
2148	379.2	4.05316
2152	379.8	4.02562
2156	380.6	3.99875
2160	381.4	3.97108
2164	381.9	3.94337
2168	382.5	3.91533
2172	383.1	3.88673
2176	383.7	3.85856
2180	384.3	3.83146
2184	384.9	3.80301
2188	385.5	3.77376
2192	386.3	3.74588
2196	387	3.71819
2200	387.8	3.68971
2204	388.7	3.66069
2208	389.3	3.63231
2212	390	3.60291
2216	390.6	3.57214
2220	391.3	3.54205
2224	391.8	3.51285
2228	392.4	3.48317
2232	393.1	3.4543
2236	393.7	3.42542
2240	394.4	3.39692
2244	394.9	3.36956
2248	395.6	3.34184
2252	396.4	3.31411
2256	397.2	3.28798
2260	398	3.26132
2264	398.7	3.23624
2268	399.4	3.21213
2272	400	3.18908
2276	400.7	3.16581
2280	401.4	3.14338
2284	401.9	3.12173
2288	402.5	3.10034
2292	403.1	3.07997
2296	403.9	3.0593
2300	404.4	3.04033
2304	405.1	3.01981
2308	405.9	3.00098
2312	406.6	2.98168
2316	407.3	2.9625
2320	408	2.94331
2324	408.7	2.92523
2328	409.4	2.90661
2332	410	2.88851
2336	410.6	2.86984
2340	411.4	2.85187
2344	412	2.83305
2348	412.7	2.81513
2352	413.2	2.79666
2356	413.9	2.77836
2360	414.6	2.76022
2364	415.3	2.74142
2368	415.8	2.72367
2372	416.6	2.7047
2376	417.3	2.68618
2380	417.9	2.66804
2384	418.7	2.64884
2388	419.2	2.63045
2392	419.9	2.61196
2396	420.5	2.59326
2400	421.2	2.57418
2404	421.9	2.5546
2408	422.6	2.53532
2412	423.2	2.51595
2416	423.8	2.49652
2420	424.6	2.47665
2424	425.3	2.45813
2428	426	2.43823
2432	426.6	2.41929
2436	427.3	2.39987
2440	427.9	2.38035
2444	428.6	2.36116
2448	429.2	2.34195
2452	429.8	2.323
2456	430.5	2.30392
2460	431.2	2.28415
2464	431.8	2.26446
2468	432.5	2.24519
2472	433.3	2.22595
2476	434.1	2.20626
2480	434.7	2.18738
2484	435.3	2.16877
2488	436	2.15063
2492	436.6	2.13268
2496	437.2	2.1144
2500	437.9	2.0968
2504	438.5	2.07933
2508	439.2	2.06239
2512	439.8	2.04538
2516	440.5	2.02842
2520	441.2	2.01275
2524	442	1.99671
2528	442.6	1.9813
2532	443.3	1.96702
2536	444	1.95223
2540	444.6	1.93849
2544	445.2	1.92471
2548	446	1.91142
2552	446.6	1.89878
2556	447.3	1.8864
2560	447.9	1.87472
2564	448.6	1.86319
2568	449.2	1.85195
2572	449.9	1.84178
2576	450.4	1.83097
2580	451.1	1.82097
2584	451.6	1.81126
2588	452.2	1.80191
2592	453	1.79286
2596	453.7	1.78422
2600	454.5	1.77549
2604	455.1	1.76684
2608	455.9	1.75835
2612	456.5	1.75047
2616	457.2	1.74294
2620	457.8	1.73532
2624	458.4	1.7281
2628	459.1	1.72113
2632	459.8	1.71399
2636	460.5	1.7075
2640	461.1	1.70082
2644	461.7	1.69474
2648	462.4	1.68909
2652	463	1.68339
2656	463.6	1.67758
2660	464.2	1.67221
2664	464.8	1.66695
2668	465.6	1.6617
2672	466.5	1.65663
2676	467.1	1.65134
2680	467.9	1.64654
2684	468.5	1.64176
2688	469.2	1.63702
2692	469.9	1.63265
2696	470.7	1.6279
2700	471.2	1.62338
2704	471.8	1.61883
2708	472.5	1.61416
2712	473	1.61032
2716	473.7	1.60636
2720	474.3	1.60212
2724	475	1.59792
2728	475.8	1.59407
2732	476.5	1.58955
2736	477.2	1.58552
2740	478	1.58118
2744	478.7	1.57726
2748	479.4	1.57313
2752	480.2	1.56907
2756	480.8	1.56494
2760	481.4	1.56057
2764	481.9	1.55624
2768	482.5	1.55232
2772	483.1	1.54827
2776	483.7	1.54449
2780	484.3	1.53997
2784	485.1	1.5358
2788	485.7	1.53181
2792	486.5	1.52687
2796	487.3	1.52317
2800	488	1.51871
2804	488.6	1.51374
2808	489.3	1.5093
2812	490	1.50499
2816	490.6	1.50043
2820	491.3	1.49604
2824	491.9	1.49099
2828	492.6	1.48636
2832	493.2	1.48152
2836	493.7	1.47711
2840	494.4	1.47289
2844	495	1.46739
2848	495.7	1.46232
2852	496.4	1.45682
2856	497.2	1.45203
2860	497.8	1.44628
2864	498.5	1.44059
2868	499.2	1.43579
2872	499.9	1.43056
2876	500.5	1.42521
2880	501.2	1.41929
2884	501.9	1.41392
2888	502.6	1.4083
2892	503.1	1.40249
2896	503.8	1.39672
2900	504.5	1.39087
2904	505.2	1.38496
2908	505.8	1.37954
2912	506.4	1.37401
2916	507.2	1.36805
2920	507.9	1.36242
2924	508.7	1.35661
2928	509.4	1.35123
2932	510	1.34556
2936	510.5	1.34001
2940	511.1	1.33372
2944	511.8	1.32776
2948	512.4	1.32281
2952	513.1	1.31609
2956	513.7	1.31104
2960	514.5	1.30583
2964	515.1	1.3007
2968	515.7	1.29492
2972	516.4	1.28988
2976	517.1	1.28506
2980	517.9	1.28019
2984	518.6	1.27523
2988	519.3	1.27094
2992	520	1.26631
2996	520.7	1.26156
3000	521.4	1.2571
3004	521.9	1.25285
3008	522.5	1.2483
3012	523.1	1.24407
3016	523.7	1.23955
3020	524.4	1.23548
3024	525.1	1.23156
3028	525.8	1.22836
3032	526.5	1.22406
3036	527.2	1.22002
3040	527.9	1.2167
3044	528.6	1.21373
3048	529.2	1.21005
3052	530	1.20591
3056	530.6	1.20246
3060	531.2	1.19939
3064	531.9	1.1956
3068	532.7	1.19166
3072	533.4	1.18847
3076	533.9	1.18523
3080	534.5	1.18193
3084	535.1	1.1786
3088	535.7	1.17529
3092	536.4	1.17189
3096	537.1	1.1688
3100	537.8	1.16521
3104	538.5	1.16291
3108	539.3	1.15983
3112	540	1.15509
3116	540.7	1.15165
3120	541.3	1.14845
3124	541.9	1.14475
3128	542.6	1.14119
3132	543.3	1.1377
3136	543.8	1.13573
3140	544.5	1.13246
3144	545.1	1.12891
3148	545.7	1.12468
3152	546.3	1.12132
3156	547.1	1.11878
3160	547.9	1.11553
3164	548.5	1.11152
3168	549.3	1.10745
3172	549.9	1.10432
3176	550.6	1.10056
3180	551.1	1.09737
3184	551.7	1.09355
3188	552.3	1.09002
3192	552.9	1.08706
3196	553.6	1.0839
3200	554.4	1.08072
3204	555.1	1.0769
3208	555.8	1.07377
3212	556.5	1.07042
3216	557.1	1.06721
3220	557.8	1.06412
3224	558.5	1.06035
3228	559.1	1.0565
3232	559.7	1.05361
3236	560.3	1.0506
3240	561	1.04777
3244	561.8	1.04444
3248	562.5	1.04048
3252	563.2	1.036
3256	564	1.0326
3260	564.6	1.02994
3264	565.2	1.02703
3268	565.8	1.0239
3272	566.4	1.02064
3276	567	1.0165
3280	567.7	1.01227
3284	568.4	1.00865
3288	569	1.00635
3292	569.8	1.00311
3296	570.5	1.00014
3300	571.2	0.996073
3304	571.9	0.991469
3308	572.5	0.988189
3312	573.2	0.985669
3316	573.9	0.982554
3320	574.6	0.978929
3324	575.2	0.9751
3328	575.8	0.970819
3332	576.5	0.967915
3336	577.1	0.965124
3340	577.8	0.961265
3344	578.4	0.957384
3348	579	0.95454
3352	579.7	0.951072
3356	580.4	0.948432
3360	581.1	0.944399
3364	581.9	0.940247
3368	582.6	0.936343
3372	583.2	0.932822
3376	583.8	0.929384
3380	584.4	0.926571
3384	585	0.922794
3388	585.7	0.919936
3392	586.4	0.916844
3396	587.1	0.913105
3400	587.8	0.909118
3404	588.5	0.905642
3408	589.1	0.902174
3412	589.8	0.898443
3416	590.3	0.895261
3420	591	0.891688
3424	591.7	0.888235
3428	592.5	0.884474
3432	593.2	0.880276
3436	593.9	0.876469
3440	594.5	0.872693
3444	595.2	0.868939
3448	595.9	0.865531
3452	596.5	0.862214
3456	597.2	0.858167
3460	597.9	0.855097
3464	598.4	0.851118
3468	599.1	0.84765
3472	599.8	0.843971
3476	600.6	0.840503
3480	601.2	0.837073
3484	601.9	0.833613
3488	602.7	0.829768
3492	603.5	0.826112
3496	604.2	0.822517
3500	604.9	0.818951
3504	605.5	0.815581
3508	606.2	0.812015
3512	606.8	0.808058
3516	607.4	0.804236
3520	608	0.800603
3524	608.8	0.797158
3528	609.4	0.793088
3532	610.3	0.78956
3536	611	0.785926
3540	611.6	0.782676
3544	612.3	0.779201
3548	613	0.775078
3552	613.7	0.771325
3556	614.2	0.767172
3560	614.9	0.764095
3564	615.5	0.760326
3568	616.3	0.756362
3572	616.9	0.752217
3576	617.7	0.748824
3580	618.4	0.745018
3584	619.1	0.741053
3588	619.7	0.737186
3592	620.4	0.733508
3596	621	0.729701
3600	621.6	0.726121
3604	622.2	0.722397
3608	622.9	0.718274
3612	623.6	0.714182
3616	624.4	0.710518
3620	625.1	0.70696
3624	625.8	0.703056
3628	626.4	0.699084
3632	627	0.695067
3636	627.8	0.691102
3640	628.3	0.687484
3644	628.9	0.683625
3648	629.6	0.679593
3652	630.4	0.675538
3656	631	0.672092
3660	631.7	0.668421
3664	632.4	0.664299
3668	633.1	0.660568
3672	633.8	0.656272
3676	634.4	0.652752
3680	635	0.649208
3684	635.6	0.645515
3688	636.3	0.641513
3692	636.9	0.637849
3696	637.7	0.634253
3700	638.4	0.630274
3704	639.1	0.626347
3708	639.8	0.622051
3712	640.5	0.618516
3716	641.2	0.614754
3720	641.8	0.611271
3724	642.4	0.607172
3728	643	0.603079
3732	643.7	0.598949
3736	644.4	0.59518
3740	645.1	0.59163
3744	645.8	0.587327
3748	646.6	0.583189
3752	647.4	0.578931
3756	648.1	0.575298
3760	648.7	0.571183
3764	649.2	0.567339
3768	649.9	0.56348
3772	650.6	0.55947
3776	651.2	0.555686
3780	651.8	0.551707
3784	652.6	0.547863
3788	653.3	0.543748
3792	654	0.539956
3796	654.7	0.535977
3800	655.3	0.532193
3804	655.8	0.528304
3808	656.5	0.524399
3812	657.2	0.520555
3816	657.8	0.516658
3820	658.5	0.51313
3824	659.2	0.509136
3828	659.8	0.505239
3832	660.4	0.501395
3836	661.1	0.497378
3840	661.9	0.494331
3844	662.6	0.490464
3848	663.3	0.486613
3852	663.9	0.482972
3856	664.5	0.479331
3860	665.3	0.47593
3864	666	0.472177
3868	666.6	0.468581
3872	667.2	0.465301
3876	667.9	0.461457
3880	668.5	0.458222
3884	669.2	0.454626
3888	669.9	0.451527
3892	670.6	0.448021
3896	671.1	0.444486
3900	671.8	0.441138
3904	672.5	0.437783
3908	673.2	0.434495
3912	673.8	0.430787
3916	674.4	0.427198
3920	675.2	0.423783
3924	675.9	0.420293
3928	676.6	0.417487
3932	677.3	0.413951
3936	678	0.410235
3940	678.8	0.406549
3944	679.3	0.402983
3948	679.9	0.400147
3952	680.6	0.396551
3956	681.3	0.393414
3960	682.1	0.390029
3964	682.7	0.38641
3968	683.4	0.383507
3972	684	0.380219
3976	684.6	0.376969
3980	685.2	0.37378
3984	685.8	0.370605
3988	686.6	0.367318
3992	687.2	0.364361
3996	688	0.361292
4000	688.7	0.358072
4004	689.4	0.355093
4008	690	0.352084
4012	690.6	0.349143
4016	691.3	0.346194
4020	691.9	0.343155
4024	692.6	0.34071
4028	693.3	0.337881
4032	694	0.334902
4036	694.8	0.332262
4040	695.4	0.329561
4044	696.1	0.326763
4048	696.7	0.323927
4052	697.5	0.321602
4056	698.1	0.318548
4060	698.8	0.315938
4064	699.4	0.313417
4068	700	0.31089
4072	700.6	0.308505
4076	701.5	0.305443
4080	702.2	0.303894
4084	702.9	0.30172
4088	703.7	0.299215
4092	704.4	0.296935
4096	705	0.295024
4100	705.6	0.293242
4104	706.2	0.290586
4108	706.9	0.288292
4112	707.6	0.286133
4116	708.3	0.283959
4120	709	0.282559
4124	709.6	0.281709
4128	710.2	0.280288
4132	710.9	0.278429
4136	711.5	0.277286
4140	712.1	0.275834
4144	712.7	0.27454
4148	713.4	0.27366
4152	714	0.273141
4156	714.8	0.271554
4160	715.6	0.269771
4164	716.2	0.268326
4168	716.7	0.267672
4172	717.4	0.267409
4176	718	0.266732
4180	718.8	0.266521
4184	719.5	0.266288
4188	720.1	0.266213
4192	720.8	0.266235
4196	721.4	0.266115
4200	722	0.266145
4204	722.7	0.26634
4208	723.4	0.266085
4212	724.1	0.266017
4216	724.8	0.265934
4220	725.4	0.265829
4224	726.1	0.265949
4228	726.8	0.265882
4232	727.4	0.265761
4236	728.1	0.265912
4240	728.8	0.266205
4244	729.4	0.266055
4248	730.1	0.265836
4252	730.8	0.265784
4256	731.5	0.265611
4260	732.2	0.265769
4264	732.8	0.26549
4268	733.5	0.265912
4272	734.1	0.266777
4276	734.8	0.267243
4280	735.5	0.267356
4284	736.2	0.266205
4288	736.8	0.266243
4292	737.4	0.266115
4296	738.1	0.265693
4300	738.8	0.265641
4304	739.5	0.265739
4308	740.1	0.265791
4312	740.8	0.265769
4316	741.4	0.265686
4320	742.1	0.265746
4324	742.7	0.265641
4328	743.4	0.265671
4332	744.1	0.265475
4336	744.8	0.265566
4340	745.5	0.266814
4344	746.1	0.26634
4348	746.8	0.265754
4352	747.4	0.266333
4356	748.1	0.267341
4360	748.8	0.266935
4364	749.4	0.266498
4368	750	0.267356
4372	750.8	0.268281
4376	751.5	0.267439
4380	752.1	0.267394
4384	752.8	0.26774
4388	753.5	0.268108
4392	754.2	0.267822
4396	754.8	0.267484
4400	755.5	0.266942
4404	756.2	0.266724
4408	757	0.266581
4412	757.6	0.265618
4416	758.2	0.265415
4420	758.9	0.26549
4424	759.6	0.265408
4428	760.1	0.265077
4432	760.9	0.265137
4436	761.4	0.265378
4440	762.1	0.265159
4444	762.9	0.265159
4448	763.4	0.265295
4452	764.1	0.265257
4456	764.8	0.265558
4460	765.5	0.2654
4464	766	0.265663
4468	766.8	0.265362
4472	767.4	0.265317
4476	768	0.265227
4480	768.7	0.265927
4484	769.3	0.266197
4488	770.1	0.267033
4492	770.8	0.266024
4496	771.4	0.265362
4500	772	0.26552
4504	772.8	0.265001
4508	773.4	0.264858
4512	774	0.265505
4516	774.6	0.265919
4520	775.4	0.266152
4524	776	0.265791
4528	776.8	0.265919
4532	777.5	0.265678
4536	778.1	0.265242
4540	778.6	0.264061
4544	779.3	0.263662
4548	780	0.263437
4552	780.7	0.264437
4556	781.4	0.264776
4560	782	0.263399
4564	782.7	0.262714
4568	783.3	0.262587
4572	784.1	0.262226
4576	784.7	0.261827
4580	785.2	0.262368
4584	786	0.262729
4588	786.7	0.262241
4592	787.4	0.26197
4596	788	0.261691
4600	788.7	0.261526
4604	789.3	0.261044
4608	789.9	0.26054
4612	790.5	0.259931
4616	791.3	0.261405
4620	791.9	0.26039
4624	792.5	0.260217
4628	793.2	0.260608
4632	793.9	0.26051
4636	794.7	0.261135
4640	795.3	0.259863
4644	795.9	0.260285
4648	796.5	0.260879
4652	797.2	0.260255
4656	797.8	0.25942
4660	798.5	0.260006
4664	799.2	0.260172
4667	799.8	0.259562